Subject;BlockCounter;Blocks;BlockList;Category[LogLevel5];Category[SubTrial];Exemplar[LogLevel5];Exemplar[SubTrial];Item;Typicality[LogLevel5];Typicality[SubTrial];RpWordQ.RESP;Retrieval: item accuracy;Retrieval: item and side correct;Response.RESP;Test: item accuracy;Test: side and item correct;Correct[LogLevel5];Correct[SubTrial];Side[LogLevel5];Side[SubTrial];SoundFile[LogLevel5];SoundFile[SubTrial];EncodeSideQ.ACC;EncodeSideQ.RESP;EncodeSideQ.RT;RpSideQ.ACC;RpSideQ.RESP;RpSideQ.RT;RpSideQ RT if item and side correct;TestSideQ.ACC;TestSideQ.RESP;TestSideQ.RT;ListSet[LogLevel5];ListSet[SubTrial];RetStem[LogLevel5];RetStem[SubTrial];TestStem;Retrieval round
4;;;;;;;;;;;;;;;;;;;;;;;;;;;;;;;;;;;;;;
4;1;6;1;;Fisk;;Braxen;NrpHigh;;high;;;;;;;;{LEFTARROW};;-10000;;braxen.wav;1;{LEFTARROW};1389;;;;;;;;;1;;Br;B;
4;1;6;1;;Fisk;;Rödspätta;NrpLow;;low;;;;;;;;{RIGHTARROW};;10000;;rödspätta.wav;1;{RIGHTARROW};803;;;;;;;;;1;;Rö;R;
4;1;6;1;;Fisk;;Hammarhaj;NrpLow;;low;;;;;;;;{RIGHTARROW};;10000;;hammarhaj.wav;1;{RIGHTARROW};721;;;;;;;;;1;;Ha;H;
4;1;6;1;;Köksredskap;;Rivjärn;RpMinus;;high;;;;;;;;{LEFTARROW};;-10000;;rivjärn.wav;1;{LEFTARROW};736;;;;;;;;;2;;Ri;R;
4;1;6;1;;Väderfenomen;;Ösregn;RpPlus;;low;;;;;;;;{LEFTARROW};;-10000;;ösregn.wav;1;{LEFTARROW};671;;;;;;;;;3;;Ös;Ö;
4;1;6;1;;Väderfenomen;;Kuling;RpPlus;;low;;;;;;;;{LEFTARROW};;-10000;;kuling.wav;1;{LEFTARROW};609;;;;;;;;;3;;Ku;K;
4;1;6;1;;Väderfenomen;;Dimma;RpMinus;;high;;;;;;;;{RIGHTARROW};;10000;;dimma.wav;1;{RIGHTARROW};597;;;;;;;;;3;;Di;D;
4;1;6;1;;Fisk;;Makrill;NrpHigh;;high;;;;;;;;{LEFTARROW};;-10000;;makrill.wav;1;{LEFTARROW};538;;;;;;;;;1;;Ma;M;
4;1;6;1;;Väderfenomen;;Monsun;RpPlus;;low;;;;;;;;{LEFTARROW};;-10000;;monsun.wav;1;{LEFTARROW};659;;;;;;;;;3;;Mo;M;
4;1;6;1;;Köksredskap;;Hålslev;RpPlus;;low;;;;;;;;{RIGHTARROW};;10000;;hålslev.wav;1;{RIGHTARROW};662;;;;;;;;;2;;Hå;H;
4;1;6;1;;Köksredskap;;Visp;RpMinus;;high;;;;;;;;{LEFTARROW};;-10000;;visp.wav;1;{LEFTARROW};566;;;;;;;;;2;;Vi;V;
4;1;6;1;;Fisk;;Flundra;NrpLow;;low;;;;;;;;{RIGHTARROW};;10000;;flundra.wav;1;{RIGHTARROW};524;;;;;;;;;1;;Fl;F;
4;1;6;1;;Väderfenomen;;Norrsken;RpMinus;;high;;;;;;;;{RIGHTARROW};;10000;;norrsken.wav;1;{RIGHTARROW};771;;;;;;;;;3;;No;N;
4;1;6;1;;Fisk;;Tonfisk;NrpHigh;;high;;;;;;;;{LEFTARROW};;-10000;;tonfisk.wav;1;{LEFTARROW};752;;;;;;;;;1;;To;T;
4;1;6;1;;Köksredskap;;Förskärare;RpPlus;;low;;;;;;;;{RIGHTARROW};;10000;;förskärare.wav;1;{RIGHTARROW};432;;;;;;;;;2;;Fö;F;
4;1;6;1;;Fisk;;Sill;NrpHigh;;high;;;;;;;;{LEFTARROW};;-10000;;sill.wav;1;{LEFTARROW};682;;;;;;;;;1;;Si;S;
4;1;6;1;;Köksredskap;;Osthyvel;RpPlus;;low;;;;;;;;{RIGHTARROW};;10000;;osthyvel.wav;1;{RIGHTARROW};572;;;;;;;;;2;;Os;O;
4;1;6;1;;Köksredskap;;Gryta;RpMinus;;high;;;;;;;;{LEFTARROW};;-10000;;gryta.wav;1;{LEFTARROW};964;;;;;;;;;2;;Gr;G;
4;1;6;1;;Väderfenomen;;Snöstorm;RpPlus;;low;;;;;;;;{LEFTARROW};;-10000;;snöstorm.wav;1;{LEFTARROW};582;;;;;;;;;3;;Sn;S;
4;1;6;1;;Väderfenomen;;Tornado;RpMinus;;high;;;;;;;;{RIGHTARROW};;10000;;tornado.wav;1;{RIGHTARROW};491;;;;;;;;;3;;To;T;
4;1;6;1;;Köksredskap;;Kavel;RpPlus;;low;;;;;;;;{RIGHTARROW};;10000;;kavel.wav;1;{RIGHTARROW};502;;;;;;;;;2;;Ka;K;
4;1;6;1;;Väderfenomen;;Hagel;RpMinus;;high;;;;;;;;{RIGHTARROW};;10000;;hagel.wav;1;{RIGHTARROW};672;;;;;;;;;3;;Ha;H;
4;1;6;1;;Fisk;;Piraya;NrpLow;;low;;;;;;;;{RIGHTARROW};;10000;;piraya.wav;1;{RIGHTARROW};468;;;;;;;;;1;;Pi;P;
4;1;6;1;;Köksredskap;;Mixer;RpMinus;;high;;;;;;;;{LEFTARROW};;-10000;;mixer.wav;1;{LEFTARROW};384;;;;;;;;;2;;Mi;M;
4;1;6;2;Väderfenomen;;Kuling;;;low;;1;1;0;;;;{LEFTARROW};;-10000;;kuling.wav;;;;;0;{RIGHTARROW};1626;;;;;3;;Ku;;;1
4;1;6;2;Väderfenomen;;Snöstorm;;;low;;1;1;1;;;;{LEFTARROW};;-10000;;snöstorm.wav;;;;;1;{LEFTARROW};573;573;;;;3;;Sn;;;1
4;1;6;2;Köksredskap;;Hålslev;;;low;;3;0;0;;;;{RIGHTARROW};;10000;;hålslev.wav;;;;;1;{RIGHTARROW};764;;;;;2;;Hå;;;1
4;1;6;2;Väderfenomen;;Ösregn;;;low;;1;1;0;;;;{LEFTARROW};;-10000;;ösregn.wav;;;;;0;{RIGHTARROW};483;;;;;3;;Ös;;;1
4;1;6;2;Väderfenomen;;Monsun;;;low;;2;0;0;;;;{LEFTARROW};;-10000;;monsun.wav;;;;;1;{LEFTARROW};1590;;;;;3;;Mo;;;1
4;1;6;2;Köksredskap;;Förskärare;;;low;;2;0;0;;;;{RIGHTARROW};;10000;;förskärare.wav;;;;;1;{RIGHTARROW};1100;;;;;2;;Fö;;;1
4;1;6;2;Köksredskap;;Osthyvel;;;low;;2;0;0;;;;{RIGHTARROW};;10000;;osthyvel.wav;;;;;0;{LEFTARROW};709;;;;;2;;Os;;;1
4;1;6;2;Köksredskap;;Kavel;;;low;;2;0;0;;;;{RIGHTARROW};;10000;;kavel.wav;;;;;1;{RIGHTARROW};798;;;;;2;;Ka;;;1
4;1;6;2;Köksredskap;;Hålslev;;;low;;3;0;0;;;;{RIGHTARROW};;10000;;hålslev.wav;;;;;1;{RIGHTARROW};1012;;;;;2;;Hå;;;2
4;1;6;2;Köksredskap;;Förskärare;;;low;;3;0;0;;;;{RIGHTARROW};;10000;;förskärare.wav;;;;;1;{RIGHTARROW};1441;;;;;2;;Fö;;;2
4;1;6;2;Väderfenomen;;Ösregn;;;low;;1;1;0;;;;{LEFTARROW};;-10000;;ösregn.wav;;;;;0;{RIGHTARROW};1101;;;;;3;;Ös;;;2
4;1;6;2;Väderfenomen;;Snöstorm;;;low;;1;1;1;;;;{LEFTARROW};;-10000;;snöstorm.wav;;;;;1;{LEFTARROW};1431;1431;;;;3;;Sn;;;2
4;1;6;2;Väderfenomen;;Monsun;;;low;;2;0;0;;;;{LEFTARROW};;-10000;;monsun.wav;;;;;0;{RIGHTARROW};1219;;;;;3;;Mo;;;2
4;1;6;2;Köksredskap;;Kavel;;;low;;3;0;0;;;;{RIGHTARROW};;10000;;kavel.wav;;;;;1;{RIGHTARROW};1800;;;;;2;;Ka;;;2
4;1;6;2;Köksredskap;;Osthyvel;;;low;;1;1;0;;;;{RIGHTARROW};;10000;;osthyvel.wav;;;;;0;{LEFTARROW};1318;;;;;2;;Os;;;2
4;1;6;2;Väderfenomen;;Kuling;;;low;;1;1;0;;;;{LEFTARROW};;-10000;;kuling.wav;;;;;0;{RIGHTARROW};1031;;;;;3;;Ku;;;2
4;1;6;2;Väderfenomen;;Ösregn;;;low;;1;1;0;;;;{LEFTARROW};;-10000;;ösregn.wav;;;;;0;{RIGHTARROW};803;;;;;3;;Ös;;;3
4;1;6;2;Köksredskap;;Hålslev;;;low;;3;0;0;;;;{RIGHTARROW};;10000;;hålslev.wav;;;;;1;{RIGHTARROW};1784;;;;;2;;Hå;;;3
4;1;6;2;Köksredskap;;Förskärare;;;low;;2;0;0;;;;{RIGHTARROW};;10000;;förskärare.wav;;;;;1;{RIGHTARROW};1623;;;;;2;;Fö;;;3
4;1;6;2;Väderfenomen;;Snöstorm;;;low;;1;1;1;;;;{LEFTARROW};;-10000;;snöstorm.wav;;;;;1;{LEFTARROW};412;412;;;;3;;Sn;;;3
4;1;6;2;Köksredskap;;Kavel;;;low;;2;0;0;;;;{RIGHTARROW};;10000;;kavel.wav;;;;;1;{RIGHTARROW};1281;;;;;2;;Ka;;;3
4;1;6;2;Köksredskap;;Osthyvel;;;low;;1;1;0;;;;{RIGHTARROW};;10000;;osthyvel.wav;;;;;0;{LEFTARROW};979;;;;;2;;Os;;;3
4;1;6;2;Väderfenomen;;Kuling;;;low;;1;1;0;;;;{LEFTARROW};;-10000;;kuling.wav;;;;;0;{RIGHTARROW};786;;;;;3;;Ku;;;3
4;1;6;2;Väderfenomen;;Monsun;;;low;;2;0;0;;;;{LEFTARROW};;-10000;;monsun.wav;;;;;1;{LEFTARROW};616;;;;;3;;Mo;;;3
4;1;6;3;;;;;;;;;;;;;;;;;;;;;;;;;;;;;;;;;;;
4;1;6;4;;Väderfenomen;;Monsun;RpPlus;;low;;;;2;0;0;;{LEFTARROW};;-10000;;monsun.wav;;;;;;;;1;{LEFTARROW};647;;3;;Mo;M;
4;1;6;4;;Väderfenomen;;Hagel;RpMinus;;high;;;;1;1;1;;{RIGHTARROW};;10000;;hagel.wav;;;;;;;;1;{RIGHTARROW};535;;3;;Ha;H;
4;1;6;4;;Väderfenomen;;Snöstorm;RpPlus;;low;;;;1;1;1;;{LEFTARROW};;-10000;;snöstorm.wav;;;;;;;;1;{LEFTARROW};1467;;3;;Sn;S;
4;1;6;4;;Köksredskap;;Förskärare;RpPlus;;low;;;;2;0;0;;{RIGHTARROW};;10000;;förskärare.wav;;;;;;;;1;{RIGHTARROW};986;;2;;Fö;F;
4;1;6;4;;Köksredskap;;Kavel;RpPlus;;low;;;;2;0;0;;{RIGHTARROW};;10000;;kavel.wav;;;;;;;;1;{RIGHTARROW};973;;2;;Ka;K;
4;1;6;4;;Fisk;;Piraya;NrpLow;;low;;;;3;0;0;;{RIGHTARROW};;10000;;piraya.wav;;;;;;;;1;{RIGHTARROW};2496;;1;;Pi;P;
4;1;6;4;;Fisk;;Braxen;NrpHigh;;high;;;;3;0;0;;{LEFTARROW};;-10000;;braxen.wav;;;;;;;;1;{LEFTARROW};1686;;1;;Br;B;
4;1;6;4;;Fisk;;Hammarhaj;NrpLow;;low;;;;3;0;0;;{RIGHTARROW};;10000;;hammarhaj.wav;;;;;;;;1;{RIGHTARROW};989;;1;;Ha;H;
4;1;6;4;;Fisk;;Tonfisk;NrpHigh;;high;;;;2;0;0;;{LEFTARROW};;-10000;;tonfisk.wav;;;;;;;;0;{RIGHTARROW};1105;;1;;To;T;
4;1;6;4;;Väderfenomen;;Norrsken;RpMinus;;high;;;;3;0;0;;{RIGHTARROW};;10000;;norrsken.wav;;;;;;;;1;{RIGHTARROW};1534;;3;;No;N;
4;1;6;4;;Fisk;;Rödspätta;NrpLow;;low;;;;2;0;0;;{RIGHTARROW};;10000;;rödspätta.wav;;;;;;;;1;{RIGHTARROW};828;;1;;Rö;R;
4;1;6;4;;Köksredskap;;Osthyvel;RpPlus;;low;;;;1;1;1;;{RIGHTARROW};;10000;;osthyvel.wav;;;;;;;;1;{RIGHTARROW};533;;2;;Os;O;
4;1;6;4;;Fisk;;Sill;NrpHigh;;high;;;;2;0;0;;{LEFTARROW};;-10000;;sill.wav;;;;;;;;1;{LEFTARROW};1257;;1;;Si;S;
4;1;6;4;;Köksredskap;;Gryta;RpMinus;;high;;;;1;1;0;;{LEFTARROW};;-10000;;gryta.wav;;;;;;;;0;{RIGHTARROW};624;;2;;Gr;G;
4;1;6;4;;Köksredskap;;Visp;RpMinus;;high;;;;3;0;0;;{LEFTARROW};;-10000;;visp.wav;;;;;;;;1;{LEFTARROW};690;;2;;Vi;V;
4;1;6;4;;Väderfenomen;;Ösregn;RpPlus;;low;;;;1;1;0;;{LEFTARROW};;-10000;;ösregn.wav;;;;;;;;0;{RIGHTARROW};1041;;3;;Ös;Ö;
4;1;6;4;;Köksredskap;;Hålslev;RpPlus;;low;;;;3;0;0;;{RIGHTARROW};;10000;;hålslev.wav;;;;;;;;0;{LEFTARROW};1249;;2;;Hå;H;
4;1;6;4;;Köksredskap;;Rivjärn;RpMinus;;high;;;;1;1;0;;{LEFTARROW};;-10000;;rivjärn.wav;;;;;;;;0;{RIGHTARROW};1466;;2;;Ri;R;
4;1;6;4;;Väderfenomen;;Tornado;RpMinus;;high;;;;3;0;0;;{RIGHTARROW};;10000;;tornado.wav;;;;;;;;1;{RIGHTARROW};1370;;3;;To;T;
4;1;6;4;;Fisk;;Makrill;NrpHigh;;high;;;;3;0;0;;{LEFTARROW};;-10000;;makrill.wav;;;;;;;;0;{RIGHTARROW};909;;1;;Ma;M;
4;1;6;4;;Fisk;;Flundra;NrpLow;;low;;;;3;0;0;;{RIGHTARROW};;10000;;flundra.wav;;;;;;;;0;{LEFTARROW};707;;1;;Fl;F;
4;1;6;4;;Väderfenomen;;Kuling;RpPlus;;low;;;;1;1;0;;{LEFTARROW};;-10000;;kuling.wav;;;;;;;;0;{RIGHTARROW};817;;3;;Ku;K;
4;1;6;4;;Köksredskap;;Mixer;RpMinus;;high;;;;3;0;0;;{LEFTARROW};;-10000;;mixer.wav;;;;;;;;0;{RIGHTARROW};747;;2;;Mi;M;
4;1;6;4;;Väderfenomen;;Dimma;RpMinus;;high;;;;1;1;0;;{RIGHTARROW};;10000;;dimma.wav;;;;;;;;0;{LEFTARROW};1238;;3;;Di;D;
4;2;1;1;;Krydda;;Rosmarin;RpMinus;;high;;;;;;;;{LEFTARROW};;-10000;;rosmarin.wav;1;{LEFTARROW};1069;;;;;;;;;3;;Ro;R;
4;2;1;1;;Krydda;;Anis;RpPlus;;low;;;;;;;;{RIGHTARROW};;10000;;anis.wav;1;{RIGHTARROW};544;;;;;;;;;3;;An;A;
4;2;1;1;;Fotbeklädnad;;Pumps;RpMinus;;high;;;;;;;;{RIGHTARROW};;10000;;pumps.wav;1;{RIGHTARROW};696;;;;;;;;;2;;Pu;P;
4;2;1;1;;Frukt;;Ananas;NrpHigh;;high;;;;;;;;{RIGHTARROW};;10000;;ananas.wav;1;{RIGHTARROW};775;;;;;;;;;1;;An;A;
4;2;1;1;;Fotbeklädnad;;Damask;RpPlus;;low;;;;;;;;{LEFTARROW};;-10000;;damask.wav;1;{LEFTARROW};516;;;;;;;;;2;;Da;D;
4;2;1;1;;Krydda;;Oregano;RpMinus;;high;;;;;;;;{LEFTARROW};;-10000;;oregano.wav;1;{LEFTARROW};1213;;;;;;;;;3;;Or;O;
4;2;1;1;;Krydda;;Muskot;RpPlus;;low;;;;;;;;{RIGHTARROW};;10000;;muskot.wav;1;{RIGHTARROW};666;;;;;;;;;3;;Mu;M;
4;2;1;1;;Fotbeklädnad;;Raggsocka;RpPlus;;low;;;;;;;;{LEFTARROW};;-10000;;raggsocka.wav;1;{LEFTARROW};445;;;;;;;;;2;;Ra;R;
4;2;1;1;;Frukt;;Guava;NrpLow;;low;;;;;;;;{LEFTARROW};;-10000;;guava.wav;1;{LEFTARROW};874;;;;;;;;;1;;Gu;G;
4;2;1;1;;Fotbeklädnad;;Socka;RpMinus;;high;;;;;;;;{RIGHTARROW};;10000;;socka.wav;1;{RIGHTARROW};418;;;;;;;;;2;;So;S;
4;2;1;1;;Fotbeklädnad;;Boots;RpPlus;;low;;;;;;;;{LEFTARROW};;-10000;;boots.wav;1;{LEFTARROW};400;;;;;;;;;2;;Bo;B;
4;2;1;1;;Krydda;;Wasabi;RpPlus;;low;;;;;;;;{RIGHTARROW};;10000;;wasabi.wav;1;{RIGHTARROW};764;;;;;;;;;3;;Wa;W;
4;2;1;1;;Krydda;;Basilika;RpMinus;;high;;;;;;;;{LEFTARROW};;-10000;;basilika.wav;1;{LEFTARROW};683;;;;;;;;;3;;Ba;B;
4;2;1;1;;Frukt;;Satsuma;NrpLow;;low;;;;;;;;{LEFTARROW};;-10000;;satsuma.wav;1;{LEFTARROW};1212;;;;;;;;;1;;Sa;S;
4;2;1;1;;Fotbeklädnad;;Toffel;RpMinus;;high;;;;;;;;{RIGHTARROW};;10000;;toffel.wav;1;{RIGHTARROW};616;;;;;;;;;2;;To;T;
4;2;1;1;;Fotbeklädnad;;Känga;RpMinus;;high;;;;;;;;{RIGHTARROW};;10000;;känga.wav;1;{RIGHTARROW};443;;;;;;;;;2;;Kä;K;
4;2;1;1;;Frukt;;Citron;NrpHigh;;high;;;;;;;;{RIGHTARROW};;10000;;citron.wav;1;{RIGHTARROW};294;;;;;;;;;1;;Ci;C;
4;2;1;1;;Frukt;;Fikon;NrpLow;;low;;;;;;;;{LEFTARROW};;-10000;;fikon.wav;1;{LEFTARROW};439;;;;;;;;;1;;Fi;F;
4;2;1;1;;Krydda;;Koriander;RpPlus;;low;;;;;;;;{RIGHTARROW};;10000;;koriander.wav;1;{RIGHTARROW};418;;;;;;;;;3;;Ko;K;
4;2;1;1;;Frukt;;Pomerans;NrpLow;;low;;;;;;;;{LEFTARROW};;-10000;;pomerans.wav;1;{LEFTARROW};1165;;;;;;;;;1;;Po;P;
4;2;1;1;;Fotbeklädnad;;Nätstrumpa;RpPlus;;low;;;;;;;;{LEFTARROW};;-10000;;nätstrumpa.wav;1;{LEFTARROW};1050;;;;;;;;;2;;Nä;N;
4;2;1;1;;Frukt;;Vindruva;NrpHigh;;high;;;;;;;;{RIGHTARROW};;10000;;vindruva.wav;1;{RIGHTARROW};347;;;;;;;;;1;;Vi;V;
4;2;1;1;;Frukt;;Mango;NrpHigh;;high;;;;;;;;{RIGHTARROW};;10000;;mango.wav;1;{RIGHTARROW};970;;;;;;;;;1;;Ma;M;
4;2;1;1;;Krydda;;Saffran;RpMinus;;high;;;;;;;;{LEFTARROW};;-10000;;saffran.wav;1;{LEFTARROW};943;;;;;;;;;3;;Sa;S;
4;2;1;2;Fotbeklädnad;;Damask;;;low;;3;0;0;;;;{LEFTARROW};;-10000;;damask.wav;;;;;0;{RIGHTARROW};1355;;;;;2;;Da;;;1
4;2;1;2;Fotbeklädnad;;Raggsocka;;;low;;1;1;0;;;;{LEFTARROW};;-10000;;raggsocka.wav;;;;;0;{RIGHTARROW};475;;;;;2;;Ra;;;1
4;2;1;2;Krydda;;Koriander;;;low;;1;1;1;;;;{RIGHTARROW};;10000;;koriander.wav;;;;;1;{RIGHTARROW};525;525;;;;3;;Ko;;;1
4;2;1;2;Fotbeklädnad;;Nätstrumpa;;;low;;1;1;1;;;;{LEFTARROW};;-10000;;nätstrumpa.wav;;;;;1;{LEFTARROW};685;685;;;;2;;Nä;;;1
4;2;1;2;Fotbeklädnad;;Boots;;;low;;1;1;0;;;;{LEFTARROW};;-10000;;boots.wav;;;;;0;{RIGHTARROW};824;;;;;2;;Bo;;;1
4;2;1;2;Krydda;;Muskot;;;low;;1;1;1;;;;{RIGHTARROW};;10000;;muskot.wav;;;;;1;{RIGHTARROW};1916;1916;;;;3;;Mu;;;1
4;2;1;2;Krydda;;Anis;;;low;;1;1;1;;;;{RIGHTARROW};;10000;;anis.wav;;;;;1;{RIGHTARROW};581;581;;;;3;;An;;;1
4;2;1;2;Krydda;;Wasabi;;;low;;1;1;0;;;;{RIGHTARROW};;10000;;wasabi.wav;;;;;0;{LEFTARROW};404;;;;;3;;Wa;;;1
4;2;1;2;Fotbeklädnad;;Damask;;;low;;3;0;0;;;;{LEFTARROW};;-10000;;damask.wav;;;;;1;{LEFTARROW};1514;;;;;2;;Da;;;2
4;2;1;2;Fotbeklädnad;;Nätstrumpa;;;low;;1;1;0;;;;{LEFTARROW};;-10000;;nätstrumpa.wav;;;;;0;{RIGHTARROW};2355;;;;;2;;Nä;;;2
4;2;1;2;Krydda;;Anis;;;low;;1;1;0;;;;{RIGHTARROW};;10000;;anis.wav;;;;;0;{LEFTARROW};475;;;;;3;;An;;;2
4;2;1;2;Krydda;;Muskot;;;low;;1;1;1;;;;{RIGHTARROW};;10000;;muskot.wav;;;;;1;{RIGHTARROW};461;461;;;;3;;Mu;;;2
4;2;1;2;Fotbeklädnad;;Raggsocka;;;low;;1;1;1;;;;{LEFTARROW};;-10000;;raggsocka.wav;;;;;1;{LEFTARROW};1248;1248;;;;2;;Ra;;;2
4;2;1;2;Krydda;;Wasabi;;;low;;1;1;0;;;;{RIGHTARROW};;10000;;wasabi.wav;;;;;0;{LEFTARROW};371;;;;;3;;Wa;;;2
4;2;1;2;Fotbeklädnad;;Boots;;;low;;1;1;0;;;;{LEFTARROW};;-10000;;boots.wav;;;;;0;{RIGHTARROW};491;;;;;2;;Bo;;;2
4;2;1;2;Krydda;;Koriander;;;low;;1;1;1;;;;{RIGHTARROW};;10000;;koriander.wav;;;;;1;{RIGHTARROW};732;732;;;;3;;Ko;;;2
4;2;1;2;Fotbeklädnad;;Boots;;;low;;1;1;1;;;;{LEFTARROW};;-10000;;boots.wav;;;;;1;{LEFTARROW};1668;1668;;;;2;;Bo;;;3
4;2;1;2;Krydda;;Anis;;;low;;1;1;1;;;;{RIGHTARROW};;10000;;anis.wav;;;;;1;{RIGHTARROW};727;727;;;;3;;An;;;3
4;2;1;2;Krydda;;Koriander;;;low;;1;1;1;;;;{RIGHTARROW};;10000;;koriander.wav;;;;;1;{RIGHTARROW};751;751;;;;3;;Ko;;;3
4;2;1;2;Krydda;;Wasabi;;;low;;1;1;0;;;;{RIGHTARROW};;10000;;wasabi.wav;;;;;0;{LEFTARROW};470;;;;;3;;Wa;;;3
4;2;1;2;Fotbeklädnad;;Nätstrumpa;;;low;;1;1;0;;;;{LEFTARROW};;-10000;;nätstrumpa.wav;;;;;0;{RIGHTARROW};954;;;;;2;;Nä;;;3
4;2;1;2;Fotbeklädnad;;Raggsocka;;;low;;1;1;0;;;;{LEFTARROW};;-10000;;raggsocka.wav;;;;;0;{RIGHTARROW};585;;;;;2;;Ra;;;3
4;2;1;2;Krydda;;Muskot;;;low;;1;1;1;;;;{RIGHTARROW};;10000;;muskot.wav;;;;;1;{RIGHTARROW};631;631;;;;3;;Mu;;;3
4;2;1;2;Fotbeklädnad;;Damask;;;low;;3;0;0;;;;{LEFTARROW};;-10000;;damask.wav;;;;;0;{RIGHTARROW};610;;;;;2;;Da;;;3
4;2;1;3;;;;;;;;;;;;;;;;;;;;;;;;;;;;;;;;;;;
4;2;1;4;;Frukt;;Vindruva;NrpHigh;;high;;;;3;0;0;;{RIGHTARROW};;10000;;vindruva.wav;;;;;;;;0;{LEFTARROW};1362;;1;;Vi;V;
4;2;1;4;;Fotbeklädnad;;Toffel;RpMinus;;high;;;;3;0;0;;{RIGHTARROW};;10000;;toffel.wav;;;;;;;;1;{RIGHTARROW};534;;2;;To;T;
4;2;1;4;;Frukt;;Mango;NrpHigh;;high;;;;1;1;0;;{RIGHTARROW};;10000;;mango.wav;;;;;;;;0;{LEFTARROW};539;;1;;Ma;M;
4;2;1;4;;Krydda;;Wasabi;RpPlus;;low;;;;1;1;0;;{RIGHTARROW};;10000;;wasabi.wav;;;;;;;;0;{LEFTARROW};545;;3;;Wa;W;
4;2;1;4;;Frukt;;Pomerans;NrpLow;;low;;;;3;0;0;;{LEFTARROW};;-10000;;pomerans.wav;;;;;;;;0;{RIGHTARROW};1140;;1;;Po;P;
4;2;1;4;;Krydda;;Oregano;RpMinus;;high;;;;1;1;0;;{LEFTARROW};;-10000;;oregano.wav;;;;;;;;0;{RIGHTARROW};560;;3;;Or;O;
4;2;1;4;;Frukt;;Fikon;NrpLow;;low;;;;3;0;0;;{LEFTARROW};;-10000;;fikon.wav;;;;;;;;0;{RIGHTARROW};644;;1;;Fi;F;
4;2;1;4;;Fotbeklädnad;;Damask;RpPlus;;low;;;;3;0;0;;{LEFTARROW};;-10000;;damask.wav;;;;;;;;0;{RIGHTARROW};373;;2;;Da;D;
4;2;1;4;;Fotbeklädnad;;Pumps;RpMinus;;high;;;;1;1;0;;{RIGHTARROW};;10000;;pumps.wav;;;;;;;;0;{LEFTARROW};528;;2;;Pu;P;
4;2;1;4;;Krydda;;Rosmarin;RpMinus;;high;;;;1;1;0;;{LEFTARROW};;-10000;;rosmarin.wav;;;;;;;;0;{RIGHTARROW};549;;3;;Ro;R;
4;2;1;4;;Krydda;;Koriander;RpPlus;;low;;;;1;1;1;;{RIGHTARROW};;10000;;koriander.wav;;;;;;;;1;{RIGHTARROW};281;;3;;Ko;K;
4;2;1;4;;Frukt;;Satsuma;NrpLow;;low;;;;3;0;0;;{LEFTARROW};;-10000;;satsuma.wav;;;;;;;;0;{RIGHTARROW};1145;;1;;Sa;S;
4;2;1;4;;Krydda;;Saffran;RpMinus;;high;;;;3;0;0;;{LEFTARROW};;-10000;;saffran.wav;;;;;;;;0;{RIGHTARROW};725;;3;;Sa;S;
4;2;1;4;;Frukt;;Ananas;NrpHigh;;high;;;;1;1;0;;{RIGHTARROW};;10000;;ananas.wav;;;;;;;;0;{LEFTARROW};530;;1;;An;A;
4;2;1;4;;Fotbeklädnad;;Raggsocka;RpPlus;;low;;;;1;1;0;;{LEFTARROW};;-10000;;raggsocka.wav;;;;;;;;0;{RIGHTARROW};391;;2;;Ra;R;
4;2;1;4;;Fotbeklädnad;;Boots;RpPlus;;low;;;;1;1;0;;{LEFTARROW};;-10000;;boots.wav;;;;;;;;0;{RIGHTARROW};802;;2;;Bo;B;
4;2;1;4;;Fotbeklädnad;;Känga;RpMinus;;high;;;;3;0;0;;{RIGHTARROW};;10000;;känga.wav;;;;;;;;1;{RIGHTARROW};956;;2;;Kä;K;
4;2;1;4;;Fotbeklädnad;;Socka;RpMinus;;high;;;;1;1;1;;{RIGHTARROW};;10000;;socka.wav;;;;;;;;1;{RIGHTARROW};2224;;2;;So;S;
4;2;1;4;;Krydda;;Basilika;RpMinus;;high;;;;3;0;0;;{LEFTARROW};;-10000;;basilika.wav;;;;;;;;0;{RIGHTARROW};1200;;3;;Ba;B;
4;2;1;4;;Frukt;;Citron;NrpHigh;;high;;;;1;1;1;;{RIGHTARROW};;10000;;citron.wav;;;;;;;;1;{RIGHTARROW};1611;;1;;Ci;C;
4;2;1;4;;Frukt;;Guava;NrpLow;;low;;;;3;0;0;;{LEFTARROW};;-10000;;guava.wav;;;;;;;;0;{RIGHTARROW};372;;1;;Gu;G;
4;2;1;4;;Krydda;;Muskot;RpPlus;;low;;;;1;1;1;;{RIGHTARROW};;10000;;muskot.wav;;;;;;;;1;{RIGHTARROW};432;;3;;Mu;M;
4;2;1;4;;Krydda;;Anis;RpPlus;;low;;;;1;1;0;;{RIGHTARROW};;10000;;anis.wav;;;;;;;;0;{LEFTARROW};1353;;3;;An;A;
4;2;1;4;;Fotbeklädnad;;Nätstrumpa;RpPlus;;low;;;;1;1;0;;{LEFTARROW};;-10000;;nätstrumpa.wav;;;;;;;;0;{RIGHTARROW};509;;2;;Nä;N;
4;3;8;1;;Träd;;Magnolia;NrpLow;;low;;;;;;;;{RIGHTARROW};;10000;;magnolia.wav;1;{RIGHTARROW};1144;;;;;;;;;1;;Ma;M;
4;3;8;1;;Alkoholfri dryck;;Glögg;RpPlus;;low;;;;;;;;{RIGHTARROW};;10000;;glögg.wav;1;{RIGHTARROW};1318;;;;;;;;;2;;Gl;G;
4;3;8;1;;Kroppsdel;;Smalben;RpPlus;;low;;;;;;;;{LEFTARROW};;-10000;;smalben.wav;1;{LEFTARROW};1229;;;;;;;;;3;;Sm;S;
4;3;8;1;;Kroppsdel;;Kind;RpPlus;;low;;;;;;;;{LEFTARROW};;-10000;;kind.wav;1;{LEFTARROW};873;;;;;;;;;3;;Ki;K;
4;3;8;1;;Träd;;Asp;NrpHigh;;high;;;;;;;;{LEFTARROW};;-10000;;asp.wav;1;{LEFTARROW};853;;;;;;;;;1;;As;A;
4;3;8;1;;Träd;;Kastanj;NrpHigh;;high;;;;;;;;{LEFTARROW};;-10000;;kastanj.wav;1;{LEFTARROW};895;;;;;;;;;1;;Ka;K;
4;3;8;1;;Alkoholfri dryck;;Iste;RpMinus;;high;;;;;;;;{LEFTARROW};;-10000;;iste.wav;1;{LEFTARROW};712;;;;;;;;;2;;Is;I;
4;3;8;1;;Träd;;Bambu;NrpLow;;low;;;;;;;;{RIGHTARROW};;10000;;bambu.wav;1;{RIGHTARROW};616;;;;;;;;;1;;Ba;B;
4;3;8;1;;Alkoholfri dryck;;Juice;RpMinus;;high;;;;;;;;{LEFTARROW};;-10000;;juice.wav;1;{LEFTARROW};1405;;;;;;;;;2;;Ju;J;
4;3;8;1;;Kroppsdel;;Fot;RpMinus;;high;;;;;;;;{RIGHTARROW};;10000;;fot.wav;1;{RIGHTARROW};338;;;;;;;;;3;;Fo;F;
4;3;8;1;;Träd;;Äppelträd;NrpHigh;;high;;;;;;;;{LEFTARROW};;-10000;;äppelträd.wav;1;{LEFTARROW};402;;;;;;;;;1;;Äp;Ä;
4;3;8;1;;Träd;;Ebenholts;NrpLow;;low;;;;;;;;{RIGHTARROW};;10000;;ebenholts.wav;1;{RIGHTARROW};685;;;;;;;;;1;;Eb;E;
4;3;8;1;;Kroppsdel;;Näsa;RpMinus;;high;;;;;;;;{RIGHTARROW};;10000;;näsa.wav;1;{RIGHTARROW};589;;;;;;;;;3;;Nä;N;
4;3;8;1;;Kroppsdel;;Mage;RpMinus;;high;;;;;;;;{RIGHTARROW};;10000;;mage.wav;1;{RIGHTARROW};835;;;;;;;;;3;;Ma;M;
4;3;8;1;;Alkoholfri dryck;;Nyponsoppa;RpMinus;;high;;;;;;;;{LEFTARROW};;-10000;;nyponsoppa.wav;1;{LEFTARROW};558;;;;;;;;;2;;Ny;N;
4;3;8;1;;Kroppsdel;;Bröst;RpMinus;;high;;;;;;;;{RIGHTARROW};;10000;;bröst.wav;1;{RIGHTARROW};502;;;;;;;;;3;;Br;B;
4;3;8;1;;Alkoholfri dryck;;Välling;RpPlus;;low;;;;;;;;{RIGHTARROW};;10000;;välling.wav;1;{RIGHTARROW};830;;;;;;;;;2;;Vä;V;
4;3;8;1;;Träd;;Poppel;NrpLow;;low;;;;;;;;{RIGHTARROW};;10000;;poppel.wav;1;{RIGHTARROW};715;;;;;;;;;1;;Po;P;
4;3;8;1;;Kroppsdel;;Tand;RpPlus;;low;;;;;;;;{LEFTARROW};;-10000;;tand.wav;1;{LEFTARROW};439;;;;;;;;;3;;Ta;T;
4;3;8;1;;Alkoholfri dryck;;Kaffe;RpMinus;;high;;;;;;;;{LEFTARROW};;-10000;;kaffe.wav;1;{LEFTARROW};402;;;;;;;;;2;;Ka;K;
4;3;8;1;;Träd;;Lönn;NrpHigh;;high;;;;;;;;{LEFTARROW};;-10000;;lönn.wav;1;{LEFTARROW};912;;;;;;;;;1;;Lö;L;
4;3;8;1;;Alkoholfri dryck;;Milkshake;RpPlus;;low;;;;;;;;{RIGHTARROW};;10000;;milkshake.wav;1;{RIGHTARROW};1016;;;;;;;;;2;;Mi;M;
4;3;8;1;;Alkoholfri dryck;;Ramlösa;RpPlus;;low;;;;;;;;{RIGHTARROW};;10000;;ramlösa.wav;1;{RIGHTARROW};780;;;;;;;;;2;;Ra;R;
4;3;8;1;;Kroppsdel;;Lunga;RpPlus;;low;;;;;;;;{LEFTARROW};;-10000;;lunga.wav;1;{LEFTARROW};201;;;;;;;;;3;;Lu;L;
4;3;8;2;Kroppsdel;;Smalben;;;low;;1;1;1;;;;{LEFTARROW};;-10000;;smalben.wav;;;;;1;{LEFTARROW};407;407;;;;3;;Sm;;;1
4;3;8;2;Kroppsdel;;Tand;;;low;;1;1;0;;;;{LEFTARROW};;-10000;;tand.wav;;;;;0;{RIGHTARROW};572;;;;;3;;Ta;;;1
4;3;8;2;Kroppsdel;;Kind;;;low;;1;1;0;;;;{LEFTARROW};;-10000;;kind.wav;;;;;0;{RIGHTARROW};412;;;;;3;;Ki;;;1
4;3;8;2;Alkoholfri dryck;;Ramlösa;;;low;;1;1;1;;;;{RIGHTARROW};;10000;;ramlösa.wav;;;;;1;{RIGHTARROW};384;384;;;;2;;Ra;;;1
4;3;8;2;Alkoholfri dryck;;Välling;;;low;;1;1;1;;;;{RIGHTARROW};;10000;;välling.wav;;;;;1;{RIGHTARROW};759;759;;;;2;;Vä;;;1
4;3;8;2;Kroppsdel;;Lunga;;;low;;1;1;1;;;;{LEFTARROW};;-10000;;lunga.wav;;;;;1;{LEFTARROW};1758;1758;;;;3;;Lu;;;1
4;3;8;2;Alkoholfri dryck;;Milkshake;;;low;;1;1;1;;;;{RIGHTARROW};;10000;;milkshake.wav;;;;;1;{RIGHTARROW};365;365;;;;2;;Mi;;;1
4;3;8;2;Alkoholfri dryck;;Glögg;;;low;;1;1;0;;;;{RIGHTARROW};;10000;;glögg.wav;;;;;0;{LEFTARROW};564;;;;;2;;Gl;;;1
4;3;8;2;Kroppsdel;;Kind;;;low;;1;1;0;;;;{LEFTARROW};;-10000;;kind.wav;;;;;0;{RIGHTARROW};547;;;;;3;;Ki;;;2
4;3;8;2;Alkoholfri dryck;;Välling;;;low;;1;1;1;;;;{RIGHTARROW};;10000;;välling.wav;;;;;1;{RIGHTARROW};867;867;;;;2;;Vä;;;2
4;3;8;2;Kroppsdel;;Lunga;;;low;;1;1;1;;;;{LEFTARROW};;-10000;;lunga.wav;;;;;1;{LEFTARROW};438;438;;;;3;;Lu;;;2
4;3;8;2;Alkoholfri dryck;;Milkshake;;;low;;1;1;1;;;;{RIGHTARROW};;10000;;milkshake.wav;;;;;1;{RIGHTARROW};265;265;;;;2;;Mi;;;2
4;3;8;2;Kroppsdel;;Smalben;;;low;;1;1;1;;;;{LEFTARROW};;-10000;;smalben.wav;;;;;1;{LEFTARROW};596;596;;;;3;;Sm;;;2
4;3;8;2;Alkoholfri dryck;;Ramlösa;;;low;;1;1;1;;;;{RIGHTARROW};;10000;;ramlösa.wav;;;;;1;{RIGHTARROW};1025;1025;;;;2;;Ra;;;2
4;3;8;2;Alkoholfri dryck;;Glögg;;;low;;1;1;0;;;;{RIGHTARROW};;10000;;glögg.wav;;;;;0;{LEFTARROW};461;;;;;2;;Gl;;;2
4;3;8;2;Kroppsdel;;Tand;;;low;;1;1;1;;;;{LEFTARROW};;-10000;;tand.wav;;;;;1;{LEFTARROW};257;257;;;;3;;Ta;;;2
4;3;8;2;Alkoholfri dryck;;Ramlösa;;;low;;1;1;1;;;;{RIGHTARROW};;10000;;ramlösa.wav;;;;;1;{RIGHTARROW};507;507;;;;2;;Ra;;;3
4;3;8;2;Kroppsdel;;Smalben;;;low;;1;1;1;;;;{LEFTARROW};;-10000;;smalben.wav;;;;;1;{LEFTARROW};1148;1148;;;;3;;Sm;;;3
4;3;8;2;Kroppsdel;;Lunga;;;low;;1;1;1;;;;{LEFTARROW};;-10000;;lunga.wav;;;;;1;{LEFTARROW};404;404;;;;3;;Lu;;;3
4;3;8;2;Kroppsdel;;Kind;;;low;;1;1;0;;;;{LEFTARROW};;-10000;;kind.wav;;;;;0;{RIGHTARROW};618;;;;;3;;Ki;;;3
4;3;8;2;Alkoholfri dryck;;Milkshake;;;low;;1;1;1;;;;{RIGHTARROW};;10000;;milkshake.wav;;;;;1;{RIGHTARROW};615;615;;;;2;;Mi;;;3
4;3;8;2;Alkoholfri dryck;;Välling;;;low;;1;1;1;;;;{RIGHTARROW};;10000;;välling.wav;;;;;1;{RIGHTARROW};820;820;;;;2;;Vä;;;3
4;3;8;2;Kroppsdel;;Tand;;;low;;1;1;1;;;;{LEFTARROW};;-10000;;tand.wav;;;;;1;{LEFTARROW};313;313;;;;3;;Ta;;;3
4;3;8;2;Alkoholfri dryck;;Glögg;;;low;;1;1;0;;;;{RIGHTARROW};;10000;;glögg.wav;;;;;0;{LEFTARROW};450;;;;;2;;Gl;;;3
4;3;8;3;;;;;;;;;;;;;;;;;;;;;;;;;;;;;;;;;;;
4;3;8;4;;Kroppsdel;;Näsa;RpMinus;;high;;;;3;0;0;;{RIGHTARROW};;10000;;näsa.wav;;;;;;;;1;{RIGHTARROW};1208;;3;;Nä;N;
4;3;8;4;;Träd;;Bambu;NrpLow;;low;;;;2;0;0;;{RIGHTARROW};;10000;;bambu.wav;;;;;;;;0;{LEFTARROW};498;;1;;Ba;B;
4;3;8;4;;Alkoholfri dryck;;Juice;RpMinus;;high;;;;1;1;0;;{LEFTARROW};;-10000;;juice.wav;;;;;;;;0;{RIGHTARROW};376;;2;;Ju;J;
4;3;8;4;;Kroppsdel;;Lunga;RpPlus;;low;;;;1;1;1;;{LEFTARROW};;-10000;;lunga.wav;;;;;;;;1;{LEFTARROW};355;;3;;Lu;L;
4;3;8;4;;Alkoholfri dryck;;Iste;RpMinus;;high;;;;1;1;0;;{LEFTARROW};;-10000;;iste.wav;;;;;;;;0;{RIGHTARROW};1294;;2;;Is;I;
4;3;8;4;;Träd;;Ebenholts;NrpLow;;low;;;;2;0;0;;{RIGHTARROW};;10000;;ebenholts.wav;;;;;;;;1;{RIGHTARROW};516;;1;;Eb;E;
4;3;8;4;;Kroppsdel;;Kind;RpPlus;;low;;;;1;1;0;;{LEFTARROW};;-10000;;kind.wav;;;;;;;;0;{RIGHTARROW};1658;;3;;Ki;K;
4;3;8;4;;Kroppsdel;;Tand;RpPlus;;low;;;;2;0;0;;{LEFTARROW};;-10000;;tand.wav;;;;;;;;1;{LEFTARROW};1010;;3;;Ta;T;
4;3;8;4;;Kroppsdel;;Smalben;RpPlus;;low;;;;1;1;1;;{LEFTARROW};;-10000;;smalben.wav;;;;;;;;1;{LEFTARROW};308;;3;;Sm;S;
4;3;8;4;;Träd;;Kastanj;NrpHigh;;high;;;;1;1;0;;{LEFTARROW};;-10000;;kastanj.wav;;;;;;;;0;{RIGHTARROW};498;;1;;Ka;K;
4;3;8;4;;Kroppsdel;;Fot;RpMinus;;high;;;;3;0;0;;{RIGHTARROW};;10000;;fot.wav;;;;;;;;1;{RIGHTARROW};4472;;3;;Fo;F;
4;3;8;4;;Kroppsdel;;Mage;RpMinus;;high;;;;1;1;1;;{RIGHTARROW};;10000;;mage.wav;;;;;;;;1;{RIGHTARROW};480;;3;;Ma;M;
4;3;8;4;;Träd;;Poppel;NrpLow;;low;;;;3;0;0;;{RIGHTARROW};;10000;;poppel.wav;;;;;;;;1;{RIGHTARROW};1111;;1;;Po;P;
4;3;8;4;;Kroppsdel;;Bröst;RpMinus;;high;;;;3;0;0;;{RIGHTARROW};;10000;;bröst.wav;;;;;;;;0;{LEFTARROW};741;;3;;Br;B;
4;3;8;4;;Träd;;Magnolia;NrpLow;;low;;;;1;1;0;;{RIGHTARROW};;10000;;magnolia.wav;;;;;;;;0;{LEFTARROW};769;;1;;Ma;M;
4;3;8;4;;Alkoholfri dryck;;Kaffe;RpMinus;;high;;;;3;0;0;;{LEFTARROW};;-10000;;kaffe.wav;;;;;;;;0;{RIGHTARROW};541;;2;;Ka;K;
4;3;8;4;;Alkoholfri dryck;;Glögg;RpPlus;;low;;;;1;1;0;;{RIGHTARROW};;10000;;glögg.wav;;;;;;;;0;{LEFTARROW};322;;2;;Gl;G;
4;3;8;4;;Alkoholfri dryck;;Välling;RpPlus;;low;;;;2;0;0;;{RIGHTARROW};;10000;;välling.wav;;;;;;;;1;{RIGHTARROW};624;;2;;Vä;V;
4;3;8;4;;Alkoholfri dryck;;Nyponsoppa;RpMinus;;high;;;;3;0;0;;{LEFTARROW};;-10000;;nyponsoppa.wav;;;;;;;;0;{RIGHTARROW};2081;;2;;Ny;N;
4;3;8;4;;Träd;;Asp;NrpHigh;;high;;;;3;0;0;;{LEFTARROW};;-10000;;asp.wav;;;;;;;;1;{LEFTARROW};1384;;1;;As;A;
4;3;8;4;;Träd;;Lönn;NrpHigh;;high;;;;1;1;0;;{LEFTARROW};;-10000;;lönn.wav;;;;;;;;0;{RIGHTARROW};890;;1;;Lö;L;
4;3;8;4;;Alkoholfri dryck;;Ramlösa;RpPlus;;low;;;;1;1;1;;{RIGHTARROW};;10000;;ramlösa.wav;;;;;;;;1;{RIGHTARROW};529;;2;;Ra;R;
4;3;8;4;;Alkoholfri dryck;;Milkshake;RpPlus;;low;;;;3;0;0;;{RIGHTARROW};;10000;;milkshake.wav;;;;;;;;0;{LEFTARROW};1462;;2;;Mi;M;
4;3;8;4;;Träd;;Äppelträd;NrpHigh;;high;;;;3;0;0;;{LEFTARROW};;-10000;;äppelträd.wav;;;;;;;;0;{RIGHTARROW};774;;1;;Äp;Ä;
4;4;2;1;;Fyrbent djur;;Ekorre;RpPlus;;low;;;;;;;;{RIGHTARROW};;10000;;ekorre.wav;1;{RIGHTARROW};2816;;;;;;;;;2;;Ek;E;
4;4;2;1;;Fyrbent djur;;Dromedar;RpPlus;;low;;;;;;;;{RIGHTARROW};;10000;;dromedar.wav;1;{RIGHTARROW};651;;;;;;;;;2;;Dr;D;
4;4;2;1;;Dansstil;;Wienervals;RpPlus;;low;;;;;;;;{LEFTARROW};;-10000;;wienervals.wav;1;{LEFTARROW};556;;;;;;;;;3;;Wi;W;
4;4;2;1;;Dansstil;;Balett;RpMinus;;high;;;;;;;;{RIGHTARROW};;10000;;balett.wav;1;{RIGHTARROW};501;;;;;;;;;3;;Ba;B;
4;4;2;1;;Dansstil;;Polka;RpMinus;;high;;;;;;;;{RIGHTARROW};;10000;;polka.wav;1;{RIGHTARROW};271;;;;;;;;;3;;Po;P;
4;4;2;1;;Dansstil;;Rumba;RpPlus;;low;;;;;;;;{LEFTARROW};;-10000;;rumba.wav;1;{LEFTARROW};593;;;;;;;;;3;;Ru;R;
4;4;2;1;;Blomma;;Dahlia;NrpLow;;low;;;;;;;;{RIGHTARROW};;10000;;dahlia.wav;1;{RIGHTARROW};343;;;;;;;;;1;;Da;D;
4;4;2;1;;Dansstil;;Salsa;RpMinus;;high;;;;;;;;{RIGHTARROW};;10000;;salsa.wav;1;{RIGHTARROW};1110;;;;;;;;;3;;Sa;S;
4;4;2;1;;Fyrbent djur;;Lejon;RpMinus;;high;;;;;;;;{LEFTARROW};;-10000;;lejon.wav;1;{LEFTARROW};1687;;;;;;;;;2;;Le;L;
4;4;2;1;;Fyrbent djur;;Giraff;RpMinus;;high;;;;;;;;{LEFTARROW};;-10000;;giraff.wav;1;{LEFTARROW};494;;;;;;;;;2;;Gi;G;
4;4;2;1;;Blomma;;Iris;NrpLow;;low;;;;;;;;{RIGHTARROW};;10000;;iris.wav;1;{RIGHTARROW};678;;;;;;;;;1;;Ir;I;
4;4;2;1;;Blomma;;Blåklocka;NrpHigh;;high;;;;;;;;{LEFTARROW};;-10000;;blåklocka.wav;1;{LEFTARROW};1095;;;;;;;;;1;;Bl;B;
4;4;2;1;;Blomma;;Tussilago;NrpHigh;;high;;;;;;;;{LEFTARROW};;-10000;;tussilago.wav;1;{LEFTARROW};743;;;;;;;;;1;;Tu;T;
4;4;2;1;;Dansstil;;Foxtrot;RpMinus;;high;;;;;;;;{RIGHTARROW};;10000;;foxtrot.wav;1;{RIGHTARROW};327;;;;;;;;;3;;Fo;F;
4;4;2;1;;Blomma;;Hundkäx;NrpLow;;low;;;;;;;;{RIGHTARROW};;10000;;hundkäx.wav;1;{RIGHTARROW};856;;;;;;;;;1;;Hu;H;
4;4;2;1;;Fyrbent djur;;Råtta;RpMinus;;high;;;;;;;;{LEFTARROW};;-10000;;råtta.wav;1;{LEFTARROW};803;;;;;;;;;2;;Rå;R;
4;4;2;1;;Fyrbent djur;;Hyena;RpPlus;;low;;;;;;;;{RIGHTARROW};;10000;;hyena.wav;1;{RIGHTARROW};496;;;;;;;;;2;;Hy;H;
4;4;2;1;;Dansstil;;Twist;RpPlus;;low;;;;;;;;{LEFTARROW};;-10000;;twist.wav;1;{LEFTARROW};664;;;;;;;;;3;;Tw;T;
4;4;2;1;;Fyrbent djur;;Panter;RpPlus;;low;;;;;;;;{RIGHTARROW};;10000;;panter.wav;1;{RIGHTARROW};666;;;;;;;;;2;;Pa;P;
4;4;2;1;;Blomma;;Vitsippa;NrpHigh;;high;;;;;;;;{LEFTARROW};;-10000;;vitsippa.wav;1;{LEFTARROW};412;;;;;;;;;1;;Vi;V;
4;4;2;1;;Blomma;;Krokus;NrpLow;;low;;;;;;;;{RIGHTARROW};;10000;;krokus.wav;1;{RIGHTARROW};585;;;;;;;;;1;;Kr;K;
4;4;2;1;;Fyrbent djur;;Tiger;RpMinus;;high;;;;;;;;{LEFTARROW};;-10000;;tiger.wav;1;{LEFTARROW};734;;;;;;;;;2;;Ti;T;
4;4;2;1;;Dansstil;;Lambada;RpPlus;;low;;;;;;;;{LEFTARROW};;-10000;;lambada.wav;1;{LEFTARROW};716;;;;;;;;;3;;La;L;
4;4;2;1;;Blomma;;Lilja;NrpHigh;;high;;;;;;;;{LEFTARROW};;-10000;;lilja.wav;1;{LEFTARROW};732;;;;;;;;;1;;Li;L;
4;4;2;2;Fyrbent djur;;Ekorre;;;low;;1;1;1;;;;{RIGHTARROW};;10000;;ekorre.wav;;;;;1;{RIGHTARROW};317;317;;;;2;;Ek;;;1
4;4;2;2;Fyrbent djur;;Panter;;;low;;1;1;1;;;;{RIGHTARROW};;10000;;panter.wav;;;;;1;{RIGHTARROW};470;470;;;;2;;Pa;;;1
4;4;2;2;Dansstil;;Twist;;;low;;1;1;1;;;;{LEFTARROW};;-10000;;twist.wav;;;;;1;{LEFTARROW};378;378;;;;3;;Tw;;;1
4;4;2;2;Dansstil;;Lambada;;;low;;3;0;0;;;;{LEFTARROW};;-10000;;lambada.wav;;;;;0;{RIGHTARROW};304;;;;;3;;La;;;1
4;4;2;2;Dansstil;;Wienervals;;;low;;1;1;1;;;;{LEFTARROW};;-10000;;wienervals.wav;;;;;1;{LEFTARROW};474;474;;;;3;;Wi;;;1
4;4;2;2;Fyrbent djur;;Dromedar;;;low;;1;1;1;;;;{RIGHTARROW};;10000;;dromedar.wav;;;;;1;{RIGHTARROW};380;380;;;;2;;Dr;;;1
4;4;2;2;Dansstil;;Rumba;;;low;;1;1;0;;;;{LEFTARROW};;-10000;;rumba.wav;;;;;0;{RIGHTARROW};275;;;;;3;;Ru;;;1
4;4;2;2;Fyrbent djur;;Hyena;;;low;;1;1;1;;;;{RIGHTARROW};;10000;;hyena.wav;;;;;1;{RIGHTARROW};252;252;;;;2;;Hy;;;1
4;4;2;2;Dansstil;;Wienervals;;;low;;1;1;1;;;;{LEFTARROW};;-10000;;wienervals.wav;;;;;1;{LEFTARROW};344;344;;;;3;;Wi;;;2
4;4;2;2;Fyrbent djur;;Ekorre;;;low;;1;1;1;;;;{RIGHTARROW};;10000;;ekorre.wav;;;;;1;{RIGHTARROW};447;447;;;;2;;Ek;;;2
4;4;2;2;Dansstil;;Twist;;;low;;1;1;1;;;;{LEFTARROW};;-10000;;twist.wav;;;;;1;{LEFTARROW};1155;1155;;;;3;;Tw;;;2
4;4;2;2;Fyrbent djur;;Panter;;;low;;1;1;1;;;;{RIGHTARROW};;10000;;panter.wav;;;;;1;{RIGHTARROW};571;571;;;;2;;Pa;;;2
4;4;2;2;Fyrbent djur;;Hyena;;;low;;1;1;1;;;;{RIGHTARROW};;10000;;hyena.wav;;;;;1;{RIGHTARROW};330;330;;;;2;;Hy;;;2
4;4;2;2;Fyrbent djur;;Dromedar;;;low;;1;1;1;;;;{RIGHTARROW};;10000;;dromedar.wav;;;;;1;{RIGHTARROW};914;914;;;;2;;Dr;;;2
4;4;2;2;Dansstil;;Lambada;;;low;;1;1;1;;;;{LEFTARROW};;-10000;;lambada.wav;;;;;1;{LEFTARROW};2499;2499;;;;3;;La;;;2
4;4;2;2;Dansstil;;Rumba;;;low;;1;1;1;;;;{LEFTARROW};;-10000;;rumba.wav;;;;;1;{LEFTARROW};485;485;;;;3;;Ru;;;2
4;4;2;2;Dansstil;;Lambada;;;low;;3;0;0;;;;{LEFTARROW};;-10000;;lambada.wav;;;;;0;{RIGHTARROW};728;;;;;3;;La;;;3
4;4;2;2;Dansstil;;Twist;;;low;;1;1;1;;;;{LEFTARROW};;-10000;;twist.wav;;;;;1;{LEFTARROW};320;320;;;;3;;Tw;;;3
4;4;2;2;Dansstil;;Wienervals;;;low;;1;1;1;;;;{LEFTARROW};;-10000;;wienervals.wav;;;;;1;{LEFTARROW};2024;2024;;;;3;;Wi;;;3
4;4;2;2;Fyrbent djur;;Ekorre;;;low;;1;1;1;;;;{RIGHTARROW};;10000;;ekorre.wav;;;;;1;{RIGHTARROW};716;716;;;;2;;Ek;;;3
4;4;2;2;Fyrbent djur;;Dromedar;;;low;;1;1;1;;;;{RIGHTARROW};;10000;;dromedar.wav;;;;;1;{RIGHTARROW};324;324;;;;2;;Dr;;;3
4;4;2;2;Dansstil;;Rumba;;;low;;1;1;0;;;;{LEFTARROW};;-10000;;rumba.wav;;;;;0;{RIGHTARROW};845;;;;;3;;Ru;;;3
4;4;2;2;Fyrbent djur;;Panter;;;low;;1;1;1;;;;{RIGHTARROW};;10000;;panter.wav;;;;;1;{RIGHTARROW};721;721;;;;2;;Pa;;;3
4;4;2;2;Fyrbent djur;;Hyena;;;low;;1;1;1;;;;{RIGHTARROW};;10000;;hyena.wav;;;;;1;{RIGHTARROW};586;586;;;;2;;Hy;;;3
4;4;2;3;;;;;;;;;;;;;;;;;;;;;;;;;;;;;;;;;;;
4;4;2;4;;Fyrbent djur;;Lejon;RpMinus;;high;;;;3;0;0;;{LEFTARROW};;-10000;;lejon.wav;;;;;;;;0;{RIGHTARROW};2207;;2;;Le;L;
4;4;2;4;;Fyrbent djur;;Ekorre;RpPlus;;low;;;;1;1;1;;{RIGHTARROW};;10000;;ekorre.wav;;;;;;;;1;{RIGHTARROW};321;;2;;Ek;E;
4;4;2;4;;Blomma;;Blåklocka;NrpHigh;;high;;;;3;0;0;;{LEFTARROW};;-10000;;blåklocka.wav;;;;;;;;0;{RIGHTARROW};1438;;1;;Bl;B;
4;4;2;4;;Blomma;;Krokus;NrpLow;;low;;;;3;0;0;;{RIGHTARROW};;10000;;krokus.wav;;;;;;;;0;{LEFTARROW};320;;1;;Kr;K;
4;4;2;4;;Dansstil;;Balett;RpMinus;;high;;;;3;0;0;;{RIGHTARROW};;10000;;balett.wav;;;;;;;;1;{RIGHTARROW};669;;3;;Ba;B;
4;4;2;4;;Dansstil;;Salsa;RpMinus;;high;;;;1;1;1;;{RIGHTARROW};;10000;;salsa.wav;;;;;;;;1;{RIGHTARROW};317;;3;;Sa;S;
4;4;2;4;;Blomma;;Vitsippa;NrpHigh;;high;;;;3;0;0;;{LEFTARROW};;-10000;;vitsippa.wav;;;;;;;;0;{RIGHTARROW};2171;;1;;Vi;V;
4;4;2;4;;Blomma;;Lilja;NrpHigh;;high;;;;1;1;1;;{LEFTARROW};;-10000;;lilja.wav;;;;;;;;1;{LEFTARROW};1647;;1;;Li;L;
4;4;2;4;;Blomma;;Iris;NrpLow;;low;;;;1;1;1;;{RIGHTARROW};;10000;;iris.wav;;;;;;;;1;{RIGHTARROW};295;;1;;Ir;I;
4;4;2;4;;Dansstil;;Lambada;RpPlus;;low;;;;3;0;0;;{LEFTARROW};;-10000;;lambada.wav;;;;;;;;1;{LEFTARROW};325;;3;;La;L;
4;4;2;4;;Dansstil;;Polka;RpMinus;;high;;;;3;0;0;;{RIGHTARROW};;10000;;polka.wav;;;;;;;;1;{RIGHTARROW};866;;3;;Po;P;
4;4;2;4;;Dansstil;;Foxtrot;RpMinus;;high;;;;3;0;0;;{RIGHTARROW};;10000;;foxtrot.wav;;;;;;;;0;{LEFTARROW};506;;3;;Fo;F;
4;4;2;4;;Dansstil;;Twist;RpPlus;;low;;;;3;0;0;;{LEFTARROW};;-10000;;twist.wav;;;;;;;;1;{LEFTARROW};1103;;3;;Tw;T;
4;4;2;4;;Dansstil;;Rumba;RpPlus;;low;;;;1;1;1;;{LEFTARROW};;-10000;;rumba.wav;;;;;;;;1;{LEFTARROW};413;;3;;Ru;R;
4;4;2;4;;Fyrbent djur;;Giraff;RpMinus;;high;;;;3;0;0;;{LEFTARROW};;-10000;;giraff.wav;;;;;;;;0;{RIGHTARROW};646;;2;;Gi;G;
4;4;2;4;;Fyrbent djur;;Hyena;RpPlus;;low;;;;2;0;0;;{RIGHTARROW};;10000;;hyena.wav;;;;;;;;1;{RIGHTARROW};1351;;2;;Hy;H;
4;4;2;4;;Fyrbent djur;;Panter;RpPlus;;low;;;;1;1;1;;{RIGHTARROW};;10000;;panter.wav;;;;;;;;1;{RIGHTARROW};251;;2;;Pa;P;
4;4;2;4;;Blomma;;Hundkäx;NrpLow;;low;;;;3;0;0;;{RIGHTARROW};;10000;;hundkäx.wav;;;;;;;;1;{RIGHTARROW};1500;;1;;Hu;H;
4;4;2;4;;Fyrbent djur;;Dromedar;RpPlus;;low;;;;1;1;1;;{RIGHTARROW};;10000;;dromedar.wav;;;;;;;;1;{RIGHTARROW};410;;2;;Dr;D;
4;4;2;4;;Dansstil;;Wienervals;RpPlus;;low;;;;1;1;1;;{LEFTARROW};;-10000;;wienervals.wav;;;;;;;;1;{LEFTARROW};307;;3;;Wi;W;
4;4;2;4;;Fyrbent djur;;Råtta;RpMinus;;high;;;;1;1;1;;{LEFTARROW};;-10000;;råtta.wav;;;;;;;;1;{LEFTARROW};337;;2;;Rå;R;
4;4;2;4;;Fyrbent djur;;Tiger;RpMinus;;high;;;;1;1;0;;{LEFTARROW};;-10000;;tiger.wav;;;;;;;;0;{RIGHTARROW};302;;2;;Ti;T;
4;4;2;4;;Blomma;;Tussilago;NrpHigh;;high;;;;1;1;0;;{LEFTARROW};;-10000;;tussilago.wav;;;;;;;;0;{RIGHTARROW};268;;1;;Tu;T;
4;4;2;4;;Blomma;;Dahlia;NrpLow;;low;;;;1;1;1;;{RIGHTARROW};;10000;;dahlia.wav;;;;;;;;1;{RIGHTARROW};506;;1;;Da;D;
4;5;5;1;;Vapen;;Lans;RpPlus;;low;;;;;;;;{RIGHTARROW};;10000;;lans.wav;1;{RIGHTARROW};941;;;;;;;;;3;;La;L;
4;5;5;1;;Musikstil;;Reggae;RpMinus;;high;;;;;;;;{RIGHTARROW};;10000;;reggae.wav;0;{LEFTARROW};822;;;;;;;;;2;;Re;R;
4;5;5;1;;Musikinstrument;;Banjo;NrpLow;;low;;;;;;;;{LEFTARROW};;-10000;;banjo.wav;1;{LEFTARROW};387;;;;;;;;;1;;Ba;B;
4;5;5;1;;Musikstil;;Dansband;RpMinus;;high;;;;;;;;{RIGHTARROW};;10000;;dansband.wav;1;{RIGHTARROW};545;;;;;;;;;2;;Da;D;
4;5;5;1;;Musikstil;;Progg;RpPlus;;low;;;;;;;;{LEFTARROW};;-10000;;progg.wav;1;{LEFTARROW};296;;;;;;;;;2;;Pr;P;
4;5;5;1;;Musikstil;;Opera;RpPlus;;low;;;;;;;;{LEFTARROW};;-10000;;opera.wav;1;{LEFTARROW};536;;;;;;;;;2;;Op;O;
4;5;5;1;;Musikinstrument;;Trombon;NrpHigh;;high;;;;;;;;{RIGHTARROW};;10000;;trombon.wav;1;{RIGHTARROW};382;;;;;;;;;1;;Tr;T;
4;5;5;1;;Musikinstrument;;Ukulele;NrpLow;;low;;;;;;;;{LEFTARROW};;-10000;;ukulele.wav;1;{LEFTARROW};298;;;;;;;;;1;;Uk;U;
4;5;5;1;;Vapen;;Hagelgevär;RpMinus;;high;;;;;;;;{LEFTARROW};;-10000;;hagelgevär.wav;1;{LEFTARROW};459;;;;;;;;;3;;Ha;H;
4;5;5;1;;Vapen;;Elpistol;RpPlus;;low;;;;;;;;{RIGHTARROW};;10000;;elpistol.wav;1;{RIGHTARROW};261;;;;;;;;;3;;El;E;
4;5;5;1;;Musikinstrument;;Saxofon;NrpHigh;;high;;;;;;;;{RIGHTARROW};;10000;;saxofon.wav;1;{RIGHTARROW};501;;;;;;;;;1;;Sa;S;
4;5;5;1;;Musikinstrument;;Luta;NrpLow;;low;;;;;;;;{LEFTARROW};;-10000;;luta.wav;1;{LEFTARROW};766;;;;;;;;;1;;Lu;L;
4;5;5;1;;Musikstil;;Klassisk;RpMinus;;high;;;;;;;;{RIGHTARROW};;10000;;klassisk.wav;1;{RIGHTARROW};316;;;;;;;;;2;;Kl;K;
4;5;5;1;;Vapen;;Kanon;RpMinus;;high;;;;;;;;{LEFTARROW};;-10000;;kanon.wav;1;{LEFTARROW};830;;;;;;;;;3;;Ka;K;
4;5;5;1;;Musikinstrument;;Flöjt;NrpHigh;;high;;;;;;;;{RIGHTARROW};;10000;;flöjt.wav;1;{RIGHTARROW};345;;;;;;;;;1;;Fl;F;
4;5;5;1;;Vapen;;Revolver;RpMinus;;high;;;;;;;;{LEFTARROW};;-10000;;revolver.wav;1;{LEFTARROW};294;;;;;;;;;3;;Re;R;
4;5;5;1;;Musikstil;;Trance;RpPlus;;low;;;;;;;;{LEFTARROW};;-10000;;trance.wav;1;{LEFTARROW};422;;;;;;;;;2;;Tr;T;
4;5;5;1;;Vapen;;Svärd;RpMinus;;high;;;;;;;;{LEFTARROW};;-10000;;svärd.wav;1;{LEFTARROW};642;;;;;;;;;3;;Sv;S;
4;5;5;1;;Vapen;;Automatvapen;RpPlus;;low;;;;;;;;{RIGHTARROW};;10000;;automatvapen.wav;1;{RIGHTARROW};743;;;;;;;;;3;;Au;A;
4;5;5;1;;Musikstil;;Electro;RpPlus;;low;;;;;;;;{LEFTARROW};;-10000;;electro.wav;1;{LEFTARROW};646;;;;;;;;;2;;El;E;
4;5;5;1;;Musikinstrument;;Munspel;NrpHigh;;high;;;;;;;;{RIGHTARROW};;10000;;munspel.wav;1;{RIGHTARROW};297;;;;;;;;;1;;Mu;M;
4;5;5;1;;Vapen;;Dolk;RpPlus;;low;;;;;;;;{RIGHTARROW};;10000;;dolk.wav;1;{RIGHTARROW};779;;;;;;;;;3;;Do;D;
4;5;5;1;;Musikinstrument;;Elbas;NrpLow;;low;;;;;;;;{LEFTARROW};;-10000;;elbas.wav;1;{LEFTARROW};551;;;;;;;;;1;;El;E;
4;5;5;1;;Musikstil;;Soul;RpMinus;;high;;;;;;;;{RIGHTARROW};;10000;;soul.wav;1;{RIGHTARROW};267;;;;;;;;;2;;So;S;
4;5;5;2;Musikstil;;Electro;;;low;;1;1;1;;;;{LEFTARROW};;-10000;;electro.wav;;;;;1;{LEFTARROW};1250;1250;;;;2;;El;;;1
4;5;5;2;Musikstil;;Trance;;;low;;1;1;1;;;;{LEFTARROW};;-10000;;trance.wav;;;;;1;{LEFTARROW};342;342;;;;2;;Tr;;;1
4;5;5;2;Vapen;;Lans;;;low;;1;1;1;;;;{RIGHTARROW};;10000;;lans.wav;;;;;1;{RIGHTARROW};238;238;;;;3;;La;;;1
4;5;5;2;Musikstil;;Opera;;;low;;1;1;0;;;;{LEFTARROW};;-10000;;opera.wav;;;;;0;{RIGHTARROW};394;;;;;2;;Op;;;1
4;5;5;2;Vapen;;Elpistol;;;low;;1;1;0;;;;{RIGHTARROW};;10000;;elpistol.wav;;;;;0;{LEFTARROW};736;;;;;3;;El;;;1
4;5;5;2;Musikstil;;Progg;;;low;;1;1;1;;;;{LEFTARROW};;-10000;;progg.wav;;;;;1;{LEFTARROW};809;809;;;;2;;Pr;;;1
4;5;5;2;Vapen;;Dolk;;;low;;1;1;1;;;;{RIGHTARROW};;10000;;dolk.wav;;;;;1;{RIGHTARROW};334;334;;;;3;;Do;;;1
4;5;5;2;Vapen;;Automatvapen;;;low;;1;1;1;;;;{RIGHTARROW};;10000;;automatvapen.wav;;;;;1;{RIGHTARROW};422;422;;;;3;;Au;;;1
4;5;5;2;Musikstil;;Electro;;;low;;1;1;1;;;;{LEFTARROW};;-10000;;electro.wav;;;;;1;{LEFTARROW};281;281;;;;2;;El;;;2
4;5;5;2;Musikstil;;Opera;;;low;;1;1;0;;;;{LEFTARROW};;-10000;;opera.wav;;;;;0;{RIGHTARROW};452;;;;;2;;Op;;;2
4;5;5;2;Musikstil;;Trance;;;low;;1;1;1;;;;{LEFTARROW};;-10000;;trance.wav;;;;;1;{LEFTARROW};359;359;;;;2;;Tr;;;2
4;5;5;2;Musikstil;;Progg;;;low;;1;1;1;;;;{LEFTARROW};;-10000;;progg.wav;;;;;1;{LEFTARROW};318;318;;;;2;;Pr;;;2
4;5;5;2;Vapen;;Lans;;;low;;1;1;1;;;;{RIGHTARROW};;10000;;lans.wav;;;;;1;{RIGHTARROW};279;279;;;;3;;La;;;2
4;5;5;2;Vapen;;Elpistol;;;low;;1;1;0;;;;{RIGHTARROW};;10000;;elpistol.wav;;;;;0;{LEFTARROW};1009;;;;;3;;El;;;2
4;5;5;2;Vapen;;Dolk;;;low;;1;1;1;;;;{RIGHTARROW};;10000;;dolk.wav;;;;;1;{RIGHTARROW};318;318;;;;3;;Do;;;2
4;5;5;2;Vapen;;Automatvapen;;;low;;1;1;1;;;;{RIGHTARROW};;10000;;automatvapen.wav;;;;;1;{RIGHTARROW};296;296;;;;3;;Au;;;2
4;5;5;2;Musikstil;;Trance;;;low;;1;1;1;;;;{LEFTARROW};;-10000;;trance.wav;;;;;1;{LEFTARROW};338;338;;;;2;;Tr;;;3
4;5;5;2;Musikstil;;Electro;;;low;;1;1;1;;;;{LEFTARROW};;-10000;;electro.wav;;;;;1;{LEFTARROW};426;426;;;;2;;El;;;3
4;5;5;2;Vapen;;Automatvapen;;;low;;1;1;1;;;;{RIGHTARROW};;10000;;automatvapen.wav;;;;;1;{RIGHTARROW};286;286;;;;3;;Au;;;3
4;5;5;2;Vapen;;Lans;;;low;;1;1;1;;;;{RIGHTARROW};;10000;;lans.wav;;;;;1;{RIGHTARROW};439;439;;;;3;;La;;;3
4;5;5;2;Vapen;;Elpistol;;;low;;1;1;0;;;;{RIGHTARROW};;10000;;elpistol.wav;;;;;0;{LEFTARROW};684;;;;;3;;El;;;3
4;5;5;2;Musikstil;;Opera;;;low;;1;1;0;;;;{LEFTARROW};;-10000;;opera.wav;;;;;0;{RIGHTARROW};342;;;;;2;;Op;;;3
4;5;5;2;Vapen;;Dolk;;;low;;1;1;1;;;;{RIGHTARROW};;10000;;dolk.wav;;;;;1;{RIGHTARROW};286;286;;;;3;;Do;;;3
4;5;5;2;Musikstil;;Progg;;;low;;1;1;1;;;;{LEFTARROW};;-10000;;progg.wav;;;;;1;{LEFTARROW};664;664;;;;2;;Pr;;;3
4;5;5;3;;;;;;;;;;;;;;;;;;;;;;;;;;;;;;;;;;;
4;5;5;4;;Musikstil;;Opera;RpPlus;;low;;;;1;1;0;;{LEFTARROW};;-10000;;opera.wav;;;;;;;;0;{RIGHTARROW};299;;2;;Op;O;
4;5;5;4;;Musikinstrument;;Flöjt;NrpHigh;;high;;;;2;0;0;;{RIGHTARROW};;10000;;flöjt.wav;;;;;;;;0;{LEFTARROW};745;;1;;Fl;F;
4;5;5;4;;Musikstil;;Progg;RpPlus;;low;;;;1;1;1;;{LEFTARROW};;-10000;;progg.wav;;;;;;;;1;{LEFTARROW};308;;2;;Pr;P;
4;5;5;4;;Vapen;;Svärd;RpMinus;;high;;;;3;0;0;;{LEFTARROW};;-10000;;svärd.wav;;;;;;;;0;{RIGHTARROW};977;;3;;Sv;S;
4;5;5;4;;Musikstil;;Trance;RpPlus;;low;;;;1;1;0;;{LEFTARROW};;-10000;;trance.wav;;;;;;;;0;{RIGHTARROW};420;;2;;Tr;T;
4;5;5;4;;Musikinstrument;;Ukulele;NrpLow;;low;;;;1;1;1;;{LEFTARROW};;-10000;;ukulele.wav;;;;;;;;1;{LEFTARROW};302;;1;;Uk;U;
4;5;5;4;;Musikinstrument;;Elbas;NrpLow;;low;;;;2;0;0;;{LEFTARROW};;-10000;;elbas.wav;;;;;;;;0;{RIGHTARROW};2444;;1;;El;E;
4;5;5;4;;Vapen;;Kanon;RpMinus;;high;;;;3;0;0;;{LEFTARROW};;-10000;;kanon.wav;;;;;;;;0;{RIGHTARROW};484;;3;;Ka;K;
4;5;5;4;;Vapen;;Dolk;RpPlus;;low;;;;1;1;1;;{RIGHTARROW};;10000;;dolk.wav;;;;;;;;1;{RIGHTARROW};347;;3;;Do;D;
4;5;5;4;;Vapen;;Revolver;RpMinus;;high;;;;1;1;0;;{LEFTARROW};;-10000;;revolver.wav;;;;;;;;0;{RIGHTARROW};295;;3;;Re;R;
4;5;5;4;;Vapen;;Elpistol;RpPlus;;low;;;;1;1;1;;{RIGHTARROW};;10000;;elpistol.wav;;;;;;;;1;{RIGHTARROW};550;;3;;El;E;
4;5;5;4;;Musikinstrument;;Saxofon;NrpHigh;;high;;;;3;0;0;;{RIGHTARROW};;10000;;saxofon.wav;;;;;;;;1;{RIGHTARROW};2042;;1;;Sa;S;
4;5;5;4;;Musikinstrument;;Luta;NrpLow;;low;;;;3;0;0;;{LEFTARROW};;-10000;;luta.wav;;;;;;;;0;{RIGHTARROW};659;;1;;Lu;L;
4;5;5;4;;Musikstil;;Soul;RpMinus;;high;;;;3;0;0;;{RIGHTARROW};;10000;;soul.wav;;;;;;;;0;{LEFTARROW};721;;2;;So;S;
4;5;5;4;;Vapen;;Hagelgevär;RpMinus;;high;;;;3;0;0;;{LEFTARROW};;-10000;;hagelgevär.wav;;;;;;;;0;{RIGHTARROW};847;;3;;Ha;H;
4;5;5;4;;Musikstil;;Dansband;RpMinus;;high;;;;3;0;0;;{RIGHTARROW};;10000;;dansband.wav;;;;;;;;0;{LEFTARROW};999;;2;;Da;D;
4;5;5;4;;Musikstil;;Reggae;RpMinus;;high;;;;1;1;1;;{RIGHTARROW};;10000;;reggae.wav;;;;;;;;1;{RIGHTARROW};297;;2;;Re;R;
4;5;5;4;;Musikinstrument;;Banjo;NrpLow;;low;;;;2;0;0;;{LEFTARROW};;-10000;;banjo.wav;;;;;;;;1;{LEFTARROW};1064;;1;;Ba;B;
4;5;5;4;;Vapen;;Automatvapen;RpPlus;;low;;;;1;1;1;;{RIGHTARROW};;10000;;automatvapen.wav;;;;;;;;1;{RIGHTARROW};456;;3;;Au;A;
4;5;5;4;;Vapen;;Lans;RpPlus;;low;;;;1;1;1;;{RIGHTARROW};;10000;;lans.wav;;;;;;;;1;{RIGHTARROW};336;;3;;La;L;
4;5;5;4;;Musikinstrument;;Munspel;NrpHigh;;high;;;;3;0;0;;{RIGHTARROW};;10000;;munspel.wav;;;;;;;;0;{LEFTARROW};1101;;1;;Mu;M;
4;5;5;4;;Musikstil;;Electro;RpPlus;;low;;;;1;1;1;;{LEFTARROW};;-10000;;electro.wav;;;;;;;;1;{LEFTARROW};283;;2;;El;E;
4;5;5;4;;Musikstil;;Klassisk;RpMinus;;high;;;;3;0;0;;{RIGHTARROW};;10000;;klassisk.wav;;;;;;;;0;{LEFTARROW};330;;2;;Kl;K;
4;5;5;4;;Musikinstrument;;Trombon;NrpHigh;;high;;;;1;1;1;;{RIGHTARROW};;10000;;trombon.wav;;;;;;;;1;{RIGHTARROW};295;;1;;Tr;T;
4;6;7;1;;Yrke;;Designer;NrpLow;;low;;;;;;;;{LEFTARROW};;-10000;;designer.wav;1;{LEFTARROW};549;;;;;;;;;1;;De;D;
4;6;7;1;;Klädesplagg;;Linne;RpMinus;;high;;;;;;;;{RIGHTARROW};;10000;;linne.wav;1;{RIGHTARROW};300;;;;;;;;;2;;Li;L;
4;6;7;1;;Klädesplagg;;Skjorta;RpMinus;;high;;;;;;;;{RIGHTARROW};;10000;;skjorta.wav;1;{RIGHTARROW};284;;;;;;;;;2;;Sk;S;
4;6;7;1;;Sport;;Badminton;RpMinus;;high;;;;;;;;{LEFTARROW};;-10000;;badminton.wav;1;{LEFTARROW};797;;;;;;;;;3;;Ba;B;
4;6;7;1;;Sport;;Cricket;RpPlus;;low;;;;;;;;{RIGHTARROW};;10000;;cricket.wav;1;{RIGHTARROW};1781;;;;;;;;;3;;Cr;C;
4;6;7;1;;Sport;;Innebandy;RpMinus;;high;;;;;;;;{LEFTARROW};;-10000;;innebandy.wav;1;{LEFTARROW};504;;;;;;;;;3;;In;I;
4;6;7;1;;Yrke;;Advokat;NrpHigh;;high;;;;;;;;{RIGHTARROW};;10000;;advokat.wav;1;{RIGHTARROW};529;;;;;;;;;1;;Ad;A;
4;6;7;1;;Klädesplagg;;Fluga;RpPlus;;low;;;;;;;;{LEFTARROW};;-10000;;fluga.wav;1;{LEFTARROW};264;;;;;;;;;2;;Fl;F;
4;6;7;1;;Sport;;Karate;RpPlus;;low;;;;;;;;{RIGHTARROW};;10000;;karate.wav;1;{RIGHTARROW};281;;;;;;;;;3;;Ka;K;
4;6;7;1;;Yrke;;Tandläkare;NrpLow;;low;;;;;;;;{LEFTARROW};;-10000;;tandläkare.wav;1;{LEFTARROW};2711;;;;;;;;;1;;Ta;T;
4;6;7;1;;Yrke;;Frisör;NrpHigh;;high;;;;;;;;{RIGHTARROW};;10000;;frisör.wav;1;{RIGHTARROW};310;;;;;;;;;1;;Fr;F;
4;6;7;1;;Sport;;Simning;RpMinus;;high;;;;;;;;{LEFTARROW};;-10000;;simning.wav;1;{LEFTARROW};374;;;;;;;;;3;;Si;S;
4;6;7;1;;Sport;;Diskus;RpPlus;;low;;;;;;;;{RIGHTARROW};;10000;;diskus.wav;1;{RIGHTARROW};469;;;;;;;;;3;;Di;D;
4;6;7;1;;Klädesplagg;;Mössa;RpMinus;;high;;;;;;;;{RIGHTARROW};;10000;;mössa.wav;1;{RIGHTARROW};766;;;;;;;;;2;;Mö;M;
4;6;7;1;;Yrke;;Ingenjör;NrpHigh;;high;;;;;;;;{RIGHTARROW};;10000;;ingenjör.wav;1;{RIGHTARROW};380;;;;;;;;;1;;In;I;
4;6;7;1;;Klädesplagg;;Pullover;RpPlus;;low;;;;;;;;{LEFTARROW};;-10000;;pullover.wav;1;{LEFTARROW};345;;;;;;;;;2;;Pu;P;
4;6;7;1;;Yrke;;Kock;NrpLow;;low;;;;;;;;{LEFTARROW};;-10000;;kock.wav;1;{LEFTARROW};311;;;;;;;;;1;;Ko;K;
4;6;7;1;;Yrke;;Präst;NrpLow;;low;;;;;;;;{LEFTARROW};;-10000;;präst.wav;1;{LEFTARROW};294;;;;;;;;;1;;Pr;P;
4;6;7;1;;Klädesplagg;;Overall;RpPlus;;low;;;;;;;;{LEFTARROW};;-10000;;overall.wav;1;{LEFTARROW};1126;;;;;;;;;2;;Ov;O;
4;6;7;1;;Klädesplagg;;Halsduk;RpPlus;;low;;;;;;;;{LEFTARROW};;-10000;;halsduk.wav;1;{LEFTARROW};469;;;;;;;;;2;;Ha;H;
4;6;7;1;;Klädesplagg;;Jacka;RpMinus;;high;;;;;;;;{RIGHTARROW};;10000;;jacka.wav;1;{RIGHTARROW};767;;;;;;;;;2;;Ja;J;
4;6;7;1;;Sport;;Golf;RpMinus;;high;;;;;;;;{LEFTARROW};;-10000;;golf.wav;1;{LEFTARROW};1053;;;;;;;;;3;;Go;G;
4;6;7;1;;Sport;;Fäktning;RpPlus;;low;;;;;;;;{RIGHTARROW};;10000;;fäktning.wav;1;{RIGHTARROW};478;;;;;;;;;3;;Fä;F;
4;6;7;1;;Yrke;;Brandman;NrpHigh;;high;;;;;;;;{RIGHTARROW};;10000;;brandman.wav;1;{RIGHTARROW};455;;;;;;;;;1;;Br;B;
4;6;7;2;Sport;;Diskus;;;low;;1;1;0;;;;{RIGHTARROW};;10000;;diskus.wav;;;;;0;{LEFTARROW};341;;;;;3;;Di;;;1
4;6;7;2;Klädesplagg;;Halsduk;;;low;;1;1;1;;;;{LEFTARROW};;-10000;;halsduk.wav;;;;;1;{LEFTARROW};701;701;;;;2;;Ha;;;1
4;6;7;2;Klädesplagg;;Pullover;;;low;;1;1;1;;;;{LEFTARROW};;-10000;;pullover.wav;;;;;1;{LEFTARROW};342;342;;;;2;;Pu;;;1
4;6;7;2;Klädesplagg;;Overall;;;low;;1;1;0;;;;{LEFTARROW};;-10000;;overall.wav;;;;;0;{RIGHTARROW};685;;;;;2;;Ov;;;1
4;6;7;2;Klädesplagg;;Fluga;;;low;;3;0;0;;;;{LEFTARROW};;-10000;;fluga.wav;;;;;1;{LEFTARROW};1111;;;;;2;;Fl;;;1
4;6;7;2;Sport;;Fäktning;;;low;;1;1;1;;;;{RIGHTARROW};;10000;;fäktning.wav;;;;;1;{RIGHTARROW};271;271;;;;3;;Fä;;;1
4;6;7;2;Sport;;Cricket;;;low;;1;1;1;;;;{RIGHTARROW};;10000;;cricket.wav;;;;;1;{RIGHTARROW};282;282;;;;3;;Cr;;;1
4;6;7;2;Sport;;Karate;;;low;;3;0;0;;;;{RIGHTARROW};;10000;;karate.wav;;;;;0;{LEFTARROW};293;;;;;3;;Ka;;;1
4;6;7;2;Sport;;Cricket;;;low;;1;1;1;;;;{RIGHTARROW};;10000;;cricket.wav;;;;;1;{RIGHTARROW};287;287;;;;3;;Cr;;;2
4;6;7;2;Sport;;Karate;;;low;;3;0;0;;;;{RIGHTARROW};;10000;;karate.wav;;;;;0;{LEFTARROW};440;;;;;3;;Ka;;;2
4;6;7;2;Klädesplagg;;Pullover;;;low;;1;1;1;;;;{LEFTARROW};;-10000;;pullover.wav;;;;;1;{LEFTARROW};972;972;;;;2;;Pu;;;2
4;6;7;2;Sport;;Diskus;;;low;;1;1;0;;;;{RIGHTARROW};;10000;;diskus.wav;;;;;0;{LEFTARROW};283;;;;;3;;Di;;;2
4;6;7;2;Sport;;Fäktning;;;low;;1;1;1;;;;{RIGHTARROW};;10000;;fäktning.wav;;;;;1;{RIGHTARROW};294;294;;;;3;;Fä;;;2
4;6;7;2;Klädesplagg;;Overall;;;low;;1;1;0;;;;{LEFTARROW};;-10000;;overall.wav;;;;;0;{RIGHTARROW};336;;;;;2;;Ov;;;2
4;6;7;2;Klädesplagg;;Fluga;;;low;;2;0;0;;;;{LEFTARROW};;-10000;;fluga.wav;;;;;1;{LEFTARROW};504;;;;;2;;Fl;;;2
4;6;7;2;Klädesplagg;;Halsduk;;;low;;1;1;1;;;;{LEFTARROW};;-10000;;halsduk.wav;;;;;1;{LEFTARROW};281;281;;;;2;;Ha;;;2
4;6;7;2;Sport;;Cricket;;;low;;1;1;1;;;;{RIGHTARROW};;10000;;cricket.wav;;;;;1;{RIGHTARROW};515;515;;;;3;;Cr;;;3
4;6;7;2;Klädesplagg;;Halsduk;;;low;;1;1;1;;;;{LEFTARROW};;-10000;;halsduk.wav;;;;;1;{LEFTARROW};356;356;;;;2;;Ha;;;3
4;6;7;2;Klädesplagg;;Pullover;;;low;;1;1;1;;;;{LEFTARROW};;-10000;;pullover.wav;;;;;1;{LEFTARROW};298;298;;;;2;;Pu;;;3
4;6;7;2;Klädesplagg;;Overall;;;low;;1;1;0;;;;{LEFTARROW};;-10000;;overall.wav;;;;;0;{RIGHTARROW};276;;;;;2;;Ov;;;3
4;6;7;2;Sport;;Karate;;;low;;3;0;0;;;;{RIGHTARROW};;10000;;karate.wav;;;;;0;{LEFTARROW};543;;;;;3;;Ka;;;3
4;6;7;2;Sport;;Fäktning;;;low;;1;1;1;;;;{RIGHTARROW};;10000;;fäktning.wav;;;;;1;{RIGHTARROW};799;799;;;;3;;Fä;;;3
4;6;7;2;Sport;;Diskus;;;low;;1;1;0;;;;{RIGHTARROW};;10000;;diskus.wav;;;;;0;{LEFTARROW};276;;;;;3;;Di;;;3
4;6;7;2;Klädesplagg;;Fluga;;;low;;2;0;0;;;;{LEFTARROW};;-10000;;fluga.wav;;;;;1;{LEFTARROW};319;;;;;2;;Fl;;;3
4;6;7;3;;;;;;;;;;;;;;;;;;;;;;;;;;;;;;;;;;;
4;6;7;4;;Sport;;Simning;RpMinus;;high;;;;1;1;1;;{LEFTARROW};;-10000;;simning.wav;;;;;;;;1;{LEFTARROW};330;;3;;Si;S;
4;6;7;4;;Klädesplagg;;Pullover;RpPlus;;low;;;;1;1;1;;{LEFTARROW};;-10000;;pullover.wav;;;;;;;;1;{LEFTARROW};279;;2;;Pu;P;
4;6;7;4;;Yrke;;Brandman;NrpHigh;;high;;;;3;0;0;;{RIGHTARROW};;10000;;brandman.wav;;;;;;;;1;{RIGHTARROW};390;;1;;Br;B;
4;6;7;4;;Klädesplagg;;Linne;RpMinus;;high;;;;3;0;0;;{RIGHTARROW};;10000;;linne.wav;;;;;;;;1;{RIGHTARROW};641;;2;;Li;L;
4;6;7;4;;Yrke;;Ingenjör;NrpHigh;;high;;;;3;0;0;;{RIGHTARROW};;10000;;ingenjör.wav;;;;;;;;0;{LEFTARROW};289;;1;;In;I;
4;6;7;4;;Yrke;;Tandläkare;NrpLow;;low;;;;3;0;0;;{LEFTARROW};;-10000;;tandläkare.wav;;;;;;;;0;{RIGHTARROW};289;;1;;Ta;T;
4;6;7;4;;Klädesplagg;;Jacka;RpMinus;;high;;;;3;0;0;;{RIGHTARROW};;10000;;jacka.wav;;;;;;;;1;{RIGHTARROW};976;;2;;Ja;J;
4;6;7;4;;Yrke;;Frisör;NrpHigh;;high;;;;3;0;0;;{RIGHTARROW};;10000;;frisör.wav;;;;;;;;1;{RIGHTARROW};451;;1;;Fr;F;
4;6;7;4;;Sport;;Innebandy;RpMinus;;high;;;;3;0;0;;{LEFTARROW};;-10000;;innebandy.wav;;;;;;;;0;{RIGHTARROW};315;;3;;In;I;
4;6;7;4;;Klädesplagg;;Mössa;RpMinus;;high;;;;1;1;1;;{RIGHTARROW};;10000;;mössa.wav;;;;;;;;1;{RIGHTARROW};519;;2;;Mö;M;
4;6;7;4;;Sport;;Badminton;RpMinus;;high;;;;2;0;0;;{LEFTARROW};;-10000;;badminton.wav;;;;;;;;0;{RIGHTARROW};1308;;3;;Ba;B;
4;6;7;4;;Yrke;;Kock;NrpLow;;low;;;;3;0;0;;{LEFTARROW};;-10000;;kock.wav;;;;;;;;0;{RIGHTARROW};371;;1;;Ko;K;
4;6;7;4;;Sport;;Diskus;RpPlus;;low;;;;1;1;0;;{RIGHTARROW};;10000;;diskus.wav;;;;;;;;0;{LEFTARROW};302;;3;;Di;D;
4;6;7;4;;Yrke;;Präst;NrpLow;;low;;;;3;0;0;;{LEFTARROW};;-10000;;präst.wav;;;;;;;;0;{RIGHTARROW};1196;;1;;Pr;P;
4;6;7;4;;Klädesplagg;;Halsduk;RpPlus;;low;;;;1;1;1;;{LEFTARROW};;-10000;;halsduk.wav;;;;;;;;1;{LEFTARROW};263;;2;;Ha;H;
4;6;7;4;;Klädesplagg;;Fluga;RpPlus;;low;;;;2;0;0;;{LEFTARROW};;-10000;;fluga.wav;;;;;;;;1;{LEFTARROW};519;;2;;Fl;F;
4;6;7;4;;Klädesplagg;;Skjorta;RpMinus;;high;;;;3;0;0;;{RIGHTARROW};;10000;;skjorta.wav;;;;;;;;1;{RIGHTARROW};2588;;2;;Sk;S;
4;6;7;4;;Sport;;Cricket;RpPlus;;low;;;;3;0;0;;{RIGHTARROW};;10000;;cricket.wav;;;;;;;;1;{RIGHTARROW};688;;3;;Cr;C;
4;6;7;4;;Sport;;Fäktning;RpPlus;;low;;;;1;1;1;;{RIGHTARROW};;10000;;fäktning.wav;;;;;;;;1;{RIGHTARROW};303;;3;;Fä;F;
4;6;7;4;;Yrke;;Advokat;NrpHigh;;high;;;;1;1;1;;{RIGHTARROW};;10000;;advokat.wav;;;;;;;;1;{RIGHTARROW};381;;1;;Ad;A;
4;6;7;4;;Sport;;Golf;RpMinus;;high;;;;3;0;0;;{LEFTARROW};;-10000;;golf.wav;;;;;;;;0;{RIGHTARROW};695;;3;;Go;G;
4;6;7;4;;Sport;;Karate;RpPlus;;low;;;;3;0;0;;{RIGHTARROW};;10000;;karate.wav;;;;;;;;1;{RIGHTARROW};534;;3;;Ka;K;
4;6;7;4;;Klädesplagg;;Overall;RpPlus;;low;;;;1;1;0;;{LEFTARROW};;-10000;;overall.wav;;;;;;;;0;{RIGHTARROW};937;;2;;Ov;O;
4;6;7;4;;Yrke;;Designer;NrpLow;;low;;;;1;1;1;;{LEFTARROW};;-10000;;designer.wav;;;;;;;;1;{LEFTARROW};303;;1;;De;D;
4;7;4;1;;Transportmedel;;Rymdskepp;NrpLow;;low;;;;;;;;{RIGHTARROW};;10000;;rymdskepp.wav;1;{RIGHTARROW};660;;;;;;;;;1;;Ry;R;
4;7;4;1;;Transportmedel;;Moped;NrpHigh;;high;;;;;;;;{LEFTARROW};;-10000;;moped.wav;1;{LEFTARROW};1141;;;;;;;;;1;;Mo;M;
4;7;4;1;;Transportmedel;;Helikopter;NrpHigh;;high;;;;;;;;{LEFTARROW};;-10000;;helikopter.wav;1;{LEFTARROW};290;;;;;;;;;1;;He;H;
4;7;4;1;;Sjukdom;;Herpes;RpPlus;;low;;;;;;;;{RIGHTARROW};;10000;;herpes.wav;1;{RIGHTARROW};500;;;;;;;;;2;;He;H;
4;7;4;1;;Transportmedel;;Ubåt;NrpLow;;low;;;;;;;;{RIGHTARROW};;10000;;ubåt.wav;1;{RIGHTARROW};492;;;;;;;;;1;;Ub;U;
4;7;4;1;;Sjukdom;;Gulsot;RpPlus;;low;;;;;;;;{RIGHTARROW};;10000;;gulsot.wav;1;{RIGHTARROW};484;;;;;;;;;2;;Gu;G;
4;7;4;1;;Transportmedel;;Snöskoter;NrpLow;;low;;;;;;;;{RIGHTARROW};;10000;;snöskoter.wav;1;{RIGHTARROW};733;;;;;;;;;1;;Sn;S;
4;7;4;1;;Transportmedel;;Färja;NrpLow;;low;;;;;;;;{RIGHTARROW};;10000;;färja.wav;1;{RIGHTARROW};653;;;;;;;;;1;;Fä;F;
4;7;4;1;;Sjukdom;;Malaria;RpMinus;;high;;;;;;;;{LEFTARROW};;-10000;;malaria.wav;1;{LEFTARROW};462;;;;;;;;;2;;Ma;M;
4;7;4;1;;Leksak;;Pussel;RpMinus;;high;;;;;;;;{RIGHTARROW};;10000;;pussel.wav;1;{RIGHTARROW};536;;;;;;;;;3;;Pu;P;
4;7;4;1;;Leksak;;Gunghäst;RpMinus;;high;;;;;;;;{RIGHTARROW};;10000;;gunghäst.wav;1;{RIGHTARROW};270;;;;;;;;;3;;Gu;G;
4;7;4;1;;Sjukdom;;Diabetes;RpMinus;;high;;;;;;;;{LEFTARROW};;-10000;;diabetes.wav;1;{LEFTARROW};384;;;;;;;;;2;;Di;D;
4;7;4;1;;Leksak;;Boll;RpMinus;;high;;;;;;;;{RIGHTARROW};;10000;;boll.wav;1;{RIGHTARROW};269;;;;;;;;;3;;Bo;B;
4;7;4;1;;Leksak;;Målarbok;RpPlus;;low;;;;;;;;{LEFTARROW};;-10000;;målarbok.wav;1;{LEFTARROW};510;;;;;;;;;3;;Må;M;
4;7;4;1;;Sjukdom;;Epilepsi;RpPlus;;low;;;;;;;;{RIGHTARROW};;10000;;epilepsi.wav;1;{RIGHTARROW};312;;;;;;;;;2;;Ep;E;
4;7;4;1;;Transportmedel;;Tunnelbana;NrpHigh;;high;;;;;;;;{LEFTARROW};;-10000;;tunnelbana.wav;1;{LEFTARROW};277;;;;;;;;;1;;Tu;T;
4;7;4;1;;Sjukdom;;Influensa;RpMinus;;high;;;;;;;;{LEFTARROW};;-10000;;influensa.wav;1;{LEFTARROW};294;;;;;;;;;2;;In;I;
4;7;4;1;;Sjukdom;;Alzheimer;RpMinus;;high;;;;;;;;{LEFTARROW};;-10000;;alzheimer.wav;1;{LEFTARROW};1078;;;;;;;;;2;;Al;A;
4;7;4;1;;Leksak;;Nalle;RpMinus;;high;;;;;;;;{RIGHTARROW};;10000;;nalle.wav;1;{RIGHTARROW};328;;;;;;;;;3;;Na;N;
4;7;4;1;;Leksak;;Dockskåp;RpPlus;;low;;;;;;;;{LEFTARROW};;-10000;;dockskåp.wav;1;{LEFTARROW};680;;;;;;;;;3;;Do;D;
4;7;4;1;;Sjukdom;;Njursten;RpPlus;;low;;;;;;;;{RIGHTARROW};;10000;;njursten.wav;1;{RIGHTARROW};377;;;;;;;;;2;;Nj;N;
4;7;4;1;;Leksak;;Skallra;RpPlus;;low;;;;;;;;{LEFTARROW};;-10000;;skallra.wav;1;{LEFTARROW};293;;;;;;;;;3;;Sk;S;
4;7;4;1;;Leksak;;Jojo;RpPlus;;low;;;;;;;;{LEFTARROW};;-10000;;jojo.wav;1;{LEFTARROW};293;;;;;;;;;3;;Jo;J;
4;7;4;1;;Transportmedel;;Lastbil;NrpHigh;;high;;;;;;;;{LEFTARROW};;-10000;;lastbil.wav;1;{LEFTARROW};1894;;;;;;;;;1;;La;L;
4;7;4;2;Leksak;;Skallra;;;low;;1;1;1;;;;{LEFTARROW};;-10000;;skallra.wav;;;;;1;{LEFTARROW};270;270;;;;3;;Sk;;;1
4;7;4;2;Sjukdom;;Njursten;;;low;;1;1;1;;;;{RIGHTARROW};;10000;;njursten.wav;;;;;1;{RIGHTARROW};377;377;;;;2;;Nj;;;1
4;7;4;2;Sjukdom;;Herpes;;;low;;1;1;1;;;;{RIGHTARROW};;10000;;herpes.wav;;;;;1;{RIGHTARROW};477;477;;;;2;;He;;;1
4;7;4;2;Leksak;;Dockskåp;;;low;;3;0;0;;;;{LEFTARROW};;-10000;;dockskåp.wav;;;;;1;{LEFTARROW};1279;;;;;3;;Do;;;1
4;7;4;2;Sjukdom;;Gulsot;;;low;;1;1;0;;;;{RIGHTARROW};;10000;;gulsot.wav;;;;;0;{LEFTARROW};402;;;;;2;;Gu;;;1
4;7;4;2;Leksak;;Jojo;;;low;;1;1;1;;;;{LEFTARROW};;-10000;;jojo.wav;;;;;1;{LEFTARROW};1479;1479;;;;3;;Jo;;;1
4;7;4;2;Sjukdom;;Epilepsi;;;low;;1;1;0;;;;{RIGHTARROW};;10000;;epilepsi.wav;;;;;0;{LEFTARROW};258;;;;;2;;Ep;;;1
4;7;4;2;Leksak;;Målarbok;;;low;;3;0;0;;;;{LEFTARROW};;-10000;;målarbok.wav;;;;;1;{LEFTARROW};861;;;;;3;;Må;;;1
4;7;4;2;Leksak;;Dockskåp;;;low;;3;0;0;;;;{LEFTARROW};;-10000;;dockskåp.wav;;;;;1;{LEFTARROW};1392;;;;;3;;Do;;;2
4;7;4;2;Sjukdom;;Njursten;;;low;;1;1;1;;;;{RIGHTARROW};;10000;;njursten.wav;;;;;1;{RIGHTARROW};493;493;;;;2;;Nj;;;2
4;7;4;2;Leksak;;Målarbok;;;low;;1;1;1;;;;{LEFTARROW};;-10000;;målarbok.wav;;;;;1;{LEFTARROW};528;528;;;;3;;Må;;;2
4;7;4;2;Sjukdom;;Gulsot;;;low;;1;1;1;;;;{RIGHTARROW};;10000;;gulsot.wav;;;;;1;{RIGHTARROW};303;303;;;;2;;Gu;;;2
4;7;4;2;Sjukdom;;Epilepsi;;;low;;1;1;0;;;;{RIGHTARROW};;10000;;epilepsi.wav;;;;;0;{LEFTARROW};489;;;;;2;;Ep;;;2
4;7;4;2;Sjukdom;;Herpes;;;low;;1;1;1;;;;{RIGHTARROW};;10000;;herpes.wav;;;;;1;{RIGHTARROW};313;313;;;;2;;He;;;2
4;7;4;2;Leksak;;Skallra;;;low;;1;1;1;;;;{LEFTARROW};;-10000;;skallra.wav;;;;;1;{LEFTARROW};274;274;;;;3;;Sk;;;2
4;7;4;2;Leksak;;Jojo;;;low;;1;1;1;;;;{LEFTARROW};;-10000;;jojo.wav;;;;;1;{LEFTARROW};300;300;;;;3;;Jo;;;2
4;7;4;2;Sjukdom;;Gulsot;;;low;;1;1;0;;;;{RIGHTARROW};;10000;;gulsot.wav;;;;;0;{LEFTARROW};454;;;;;2;;Gu;;;3
4;7;4;2;Leksak;;Jojo;;;low;;1;1;1;;;;{LEFTARROW};;-10000;;jojo.wav;;;;;1;{LEFTARROW};392;392;;;;3;;Jo;;;3
4;7;4;2;Leksak;;Dockskåp;;;low;;2;0;0;;;;{LEFTARROW};;-10000;;dockskåp.wav;;;;;0;{RIGHTARROW};606;;;;;3;;Do;;;3
4;7;4;2;Leksak;;Målarbok;;;low;;1;1;1;;;;{LEFTARROW};;-10000;;målarbok.wav;;;;;1;{LEFTARROW};315;315;;;;3;;Må;;;3
4;7;4;2;Sjukdom;;Epilepsi;;;low;;1;1;0;;;;{RIGHTARROW};;10000;;epilepsi.wav;;;;;0;{LEFTARROW};451;;;;;2;;Ep;;;3
4;7;4;2;Sjukdom;;Njursten;;;low;;1;1;1;;;;{RIGHTARROW};;10000;;njursten.wav;;;;;1;{RIGHTARROW};487;487;;;;2;;Nj;;;3
4;7;4;2;Sjukdom;;Herpes;;;low;;1;1;1;;;;{RIGHTARROW};;10000;;herpes.wav;;;;;1;{RIGHTARROW};282;282;;;;2;;He;;;3
4;7;4;2;Leksak;;Skallra;;;low;;1;1;1;;;;{LEFTARROW};;-10000;;skallra.wav;;;;;1;{LEFTARROW};307;307;;;;3;;Sk;;;3
4;7;4;3;;;;;;;;;;;;;;;;;;;;;;;;;;;;;;;;;;;
4;7;4;4;;Leksak;;Jojo;RpPlus;;low;;;;1;1;1;;{LEFTARROW};;-10000;;jojo.wav;;;;;;;;1;{LEFTARROW};405;;3;;Jo;J;
4;7;4;4;;Leksak;;Målarbok;RpPlus;;low;;;;1;1;1;;{LEFTARROW};;-10000;;målarbok.wav;;;;;;;;1;{LEFTARROW};479;;3;;Må;M;
4;7;4;4;;Transportmedel;;Moped;NrpHigh;;high;;;;1;1;1;;{LEFTARROW};;-10000;;moped.wav;;;;;;;;1;{LEFTARROW};966;;1;;Mo;M;
4;7;4;4;;Sjukdom;;Epilepsi;RpPlus;;low;;;;1;1;0;;{RIGHTARROW};;10000;;epilepsi.wav;;;;;;;;0;{LEFTARROW};490;;2;;Ep;E;
4;7;4;4;;Sjukdom;;Gulsot;RpPlus;;low;;;;1;1;1;;{RIGHTARROW};;10000;;gulsot.wav;;;;;;;;1;{RIGHTARROW};289;;2;;Gu;G;
4;7;4;4;;Transportmedel;;Tunnelbana;NrpHigh;;high;;;;3;0;0;;{LEFTARROW};;-10000;;tunnelbana.wav;;;;;;;;0;{RIGHTARROW};592;;1;;Tu;T;
4;7;4;4;;Leksak;;Gunghäst;RpMinus;;high;;;;3;0;0;;{RIGHTARROW};;10000;;gunghäst.wav;;;;;;;;1;{RIGHTARROW};467;;3;;Gu;G;
4;7;4;4;;Leksak;;Pussel;RpMinus;;high;;;;3;0;0;;{RIGHTARROW};;10000;;pussel.wav;;;;;;;;1;{RIGHTARROW};281;;3;;Pu;P;
4;7;4;4;;Transportmedel;;Snöskoter;NrpLow;;low;;;;3;0;0;;{RIGHTARROW};;10000;;snöskoter.wav;;;;;;;;1;{RIGHTARROW};504;;1;;Sn;S;
4;7;4;4;;Leksak;;Boll;RpMinus;;high;;;;1;1;1;;{RIGHTARROW};;10000;;boll.wav;;;;;;;;1;{RIGHTARROW};414;;3;;Bo;B;
4;7;4;4;;Sjukdom;;Influensa;RpMinus;;high;;;;1;1;1;;{LEFTARROW};;-10000;;influensa.wav;;;;;;;;1;{LEFTARROW};536;;2;;In;I;
4;7;4;4;;Transportmedel;;Rymdskepp;NrpLow;;low;;;;4;1;1;;{RIGHTARROW};;10000;;rymdskepp.wav;;;;;;;;1;{RIGHTARROW};269;;1;;Ry;R;
4;7;4;4;;Leksak;;Skallra;RpPlus;;low;;;;1;1;1;;{LEFTARROW};;-10000;;skallra.wav;;;;;;;;1;{LEFTARROW};461;;3;;Sk;S;
4;7;4;4;;Sjukdom;;Njursten;RpPlus;;low;;;;1;1;1;;{RIGHTARROW};;10000;;njursten.wav;;;;;;;;1;{RIGHTARROW};708;;2;;Nj;N;
4;7;4;4;;Sjukdom;;Diabetes;RpMinus;;high;;;;3;0;0;;{LEFTARROW};;-10000;;diabetes.wav;;;;;;;;1;{LEFTARROW};2098;;2;;Di;D;
4;7;4;4;;Sjukdom;;Herpes;RpPlus;;low;;;;1;1;1;;{RIGHTARROW};;10000;;herpes.wav;;;;;;;;1;{RIGHTARROW};409;;2;;He;H;
4;7;4;4;;Leksak;;Dockskåp;RpPlus;;low;;;;2;0;0;;{LEFTARROW};;-10000;;dockskåp.wav;;;;;;;;1;{LEFTARROW};387;;3;;Do;D;
4;7;4;4;;Transportmedel;;Helikopter;NrpHigh;;high;;;;3;0;0;;{LEFTARROW};;-10000;;helikopter.wav;;;;;;;;0;{RIGHTARROW};398;;1;;He;H;
4;7;4;4;;Sjukdom;;Alzheimer;RpMinus;;high;;;;1;1;1;;{LEFTARROW};;-10000;;alzheimer.wav;;;;;;;;1;{LEFTARROW};567;;2;;Al;A;
4;7;4;4;;Transportmedel;;Lastbil;NrpHigh;;high;;;;3;0;0;;{LEFTARROW};;-10000;;lastbil.wav;;;;;;;;0;{RIGHTARROW};267;;1;;La;L;
4;7;4;4;;Transportmedel;;Ubåt;NrpLow;;low;;;;1;1;1;;{RIGHTARROW};;10000;;ubåt.wav;;;;;;;;1;{RIGHTARROW};267;;1;;Ub;U;
4;7;4;4;;Sjukdom;;Malaria;RpMinus;;high;;;;1;1;1;;{LEFTARROW};;-10000;;malaria.wav;;;;;;;;1;{LEFTARROW};441;;2;;Ma;M;
4;7;4;4;;Transportmedel;;Färja;NrpLow;;low;;;;1;1;1;;{RIGHTARROW};;10000;;färja.wav;;;;;;;;1;{RIGHTARROW};321;;1;;Fä;F;
4;7;4;4;;Leksak;;Nalle;RpMinus;;high;;;;3;0;0;;{RIGHTARROW};;10000;;nalle.wav;;;;;;;;0;{LEFTARROW};335;;3;;Na;N;
4;8;3;1;;Möbel;;Pinnstol;RpPlus;;low;;;;;;;;{RIGHTARROW};;10000;;pinnstol.wav;1;{RIGHTARROW};752;;;;;;;;;3;;Pi;P;
4;8;3;1;;Fågel;;Nötskrika;RpPlus;;low;;;;;;;;{LEFTARROW};;-10000;;nötskrika.wav;1;{LEFTARROW};1246;;;;;;;;;2;;Nö;N;
4;8;3;1;;Fågel;;Rödhake;RpMinus;;high;;;;;;;;{RIGHTARROW};;10000;;rödhake.wav;0;{LEFTARROW};809;;;;;;;;;2;;Rö;R;
4;8;3;1;;Textilmaterial;;Nylon;NrpHigh;;high;;;;;;;;{RIGHTARROW};;10000;;nylon.wav;1;{RIGHTARROW};997;;;;;;;;;1;;Ny;N;
4;8;3;1;;Textilmaterial;;Denim;NrpLow;;low;;;;;;;;{LEFTARROW};;-10000;;denim.wav;1;{LEFTARROW};295;;;;;;;;;1;;De;D;
4;8;3;1;;Textilmaterial;;Velour;NrpLow;;low;;;;;;;;{LEFTARROW};;-10000;;velour.wav;1;{LEFTARROW};278;;;;;;;;;1;;Ve;V;
4;8;3;1;;Fågel;;Kungsörn;RpPlus;;low;;;;;;;;{LEFTARROW};;-10000;;kungsörn.wav;1;{LEFTARROW};1143;;;;;;;;;2;;Ku;K;
4;8;3;1;;Textilmaterial;;Sammet;NrpHigh;;high;;;;;;;;{RIGHTARROW};;10000;;sammet.wav;1;{RIGHTARROW};293;;;;;;;;;1;;Sa;S;
4;8;3;1;;Möbel;;Badkar;RpPlus;;low;;;;;;;;{RIGHTARROW};;10000;;badkar.wav;1;{RIGHTARROW};1352;;;;;;;;;3;;Ba;B;
4;8;3;1;;Fågel;;Duva;RpMinus;;high;;;;;;;;{RIGHTARROW};;10000;;duva.wav;1;{RIGHTARROW};510;;;;;;;;;2;;Du;D;
4;8;3;1;;Möbel;;Garderob;RpMinus;;high;;;;;;;;{LEFTARROW};;-10000;;garderob.wav;1;{LEFTARROW};759;;;;;;;;;3;;Ga;G;
4;8;3;1;;Möbel;;Diskbänk;RpPlus;;low;;;;;;;;{RIGHTARROW};;10000;;diskbänk.wav;1;{RIGHTARROW};309;;;;;;;;;3;;Di;D;
4;8;3;1;;Textilmaterial;;Polyester;NrpHigh;;high;;;;;;;;{RIGHTARROW};;10000;;polyester.wav;1;{RIGHTARROW};710;;;;;;;;;1;;Po;P;
4;8;3;1;;Fågel;;Undulat;RpPlus;;low;;;;;;;;{LEFTARROW};;-10000;;undulat.wav;1;{LEFTARROW};388;;;;;;;;;2;;Un;U;
4;8;3;1;;Textilmaterial;;Chiffong;NrpLow;;low;;;;;;;;{LEFTARROW};;-10000;;chiffong.wav;1;{LEFTARROW};769;;;;;;;;;1;;Ch;C;
4;8;3;1;;Fågel;;Papegoja;RpMinus;;high;;;;;;;;{RIGHTARROW};;10000;;papegoja.wav;1;{RIGHTARROW};609;;;;;;;;;2;;Pa;P;
4;8;3;1;;Möbel;;Hylla;RpMinus;;high;;;;;;;;{LEFTARROW};;-10000;;hylla.wav;1;{LEFTARROW};452;;;;;;;;;3;;Hy;H;
4;8;3;1;;Möbel;;Lampa;RpMinus;;high;;;;;;;;{LEFTARROW};;-10000;;lampa.wav;1;{LEFTARROW};1006;;;;;;;;;3;;La;L;
4;8;3;1;;Textilmaterial;;Frotté;NrpLow;;low;;;;;;;;{LEFTARROW};;-10000;;frotté.wav;1;{LEFTARROW};817;;;;;;;;;1;;Fr;F;
4;8;3;1;;Möbel;;Sekretär;RpPlus;;low;;;;;;;;{RIGHTARROW};;10000;;sekretär.wav;1;{RIGHTARROW};315;;;;;;;;;3;;Se;S;
4;8;3;1;;Textilmaterial;;Manchester;NrpHigh;;high;;;;;;;;{RIGHTARROW};;10000;;manchester.wav;1;{RIGHTARROW};668;;;;;;;;;1;;Ma;M;
4;8;3;1;;Möbel;;Fåtölj;RpMinus;;high;;;;;;;;{LEFTARROW};;-10000;;fåtölj.wav;1;{LEFTARROW};415;;;;;;;;;3;;Få;F;
4;8;3;1;;Fågel;;Svala;RpMinus;;high;;;;;;;;{RIGHTARROW};;10000;;svala.wav;1;{RIGHTARROW};762;;;;;;;;;2;;Sv;S;
4;8;3;1;;Fågel;;Häger;RpPlus;;low;;;;;;;;{LEFTARROW};;-10000;;häger.wav;1;{LEFTARROW};310;;;;;;;;;2;;Hä;H;
4;8;3;2;Möbel;;Sekretär;;;low;;1;1;0;;;;{RIGHTARROW};;10000;;sekretär.wav;;;;;0;{LEFTARROW};759;;;;;3;;Se;;;1
4;8;3;2;Fågel;;Nötskrika;;;low;;1;1;1;;;;{LEFTARROW};;-10000;;nötskrika.wav;;;;;1;{LEFTARROW};350;350;;;;2;;Nö;;;1
4;8;3;2;Möbel;;Diskbänk;;;low;;2;0;0;;;;{RIGHTARROW};;10000;;diskbänk.wav;;;;;1;{RIGHTARROW};470;;;;;3;;Di;;;1
4;8;3;2;Möbel;;Badkar;;;low;;3;0;0;;;;{RIGHTARROW};;10000;;badkar.wav;;;;;1;{RIGHTARROW};1399;;;;;3;;Ba;;;1
4;8;3;2;Möbel;;Pinnstol;;;low;;1;1;1;;;;{RIGHTARROW};;10000;;pinnstol.wav;;;;;1;{RIGHTARROW};404;404;;;;3;;Pi;;;1
4;8;3;2;Fågel;;Undulat;;;low;;1;1;1;;;;{LEFTARROW};;-10000;;undulat.wav;;;;;1;{LEFTARROW};936;936;;;;2;;Un;;;1
4;8;3;2;Fågel;;Kungsörn;;;low;;4;1;0;;;;{LEFTARROW};;-10000;;kungsörn.wav;;;;;0;{RIGHTARROW};1305;;;;;2;;Ku;;;1
4;8;3;2;Fågel;;Häger;;;low;;4;1;1;;;;{LEFTARROW};;-10000;;häger.wav;;;;;1;{LEFTARROW};569;569;;;;2;;Hä;;;1
4;8;3;2;Fågel;;Kungsörn;;;low;;4;1;1;;;;{LEFTARROW};;-10000;;kungsörn.wav;;;;;1;{LEFTARROW};3158;3158;;;;2;;Ku;;;2
4;8;3;2;Möbel;;Pinnstol;;;low;;1;1;1;;;;{RIGHTARROW};;10000;;pinnstol.wav;;;;;1;{RIGHTARROW};477;477;;;;3;;Pi;;;2
4;8;3;2;Fågel;;Undulat;;;low;;1;1;0;;;;{LEFTARROW};;-10000;;undulat.wav;;;;;0;{RIGHTARROW};319;;;;;2;;Un;;;2
4;8;3;2;Fågel;;Häger;;;low;;4;1;1;;;;{LEFTARROW};;-10000;;häger.wav;;;;;1;{LEFTARROW};392;392;;;;2;;Hä;;;2
4;8;3;2;Fågel;;Nötskrika;;;low;;1;1;1;;;;{LEFTARROW};;-10000;;nötskrika.wav;;;;;1;{LEFTARROW};398;398;;;;2;;Nö;;;2
4;8;3;2;Möbel;;Badkar;;;low;;3;0;0;;;;{RIGHTARROW};;10000;;badkar.wav;;;;;0;{LEFTARROW};1090;;;;;3;;Ba;;;2
4;8;3;2;Möbel;;Sekretär;;;low;;1;1;0;;;;{RIGHTARROW};;10000;;sekretär.wav;;;;;0;{LEFTARROW};315;;;;;3;;Se;;;2
4;8;3;2;Möbel;;Diskbänk;;;low;;2;0;0;;;;{RIGHTARROW};;10000;;diskbänk.wav;;;;;0;{LEFTARROW};323;;;;;3;;Di;;;2
4;8;3;2;Fågel;;Kungsörn;;;low;;4;1;0;;;;{LEFTARROW};;-10000;;kungsörn.wav;;;;;0;{RIGHTARROW};460;;;;;2;;Ku;;;3
4;8;3;2;Fågel;;Häger;;;low;;4;1;1;;;;{LEFTARROW};;-10000;;häger.wav;;;;;1;{LEFTARROW};319;319;;;;2;;Hä;;;3
4;8;3;2;Möbel;;Sekretär;;;low;;1;1;0;;;;{RIGHTARROW};;10000;;sekretär.wav;;;;;0;{LEFTARROW};696;;;;;3;;Se;;;3
4;8;3;2;Möbel;;Diskbänk;;;low;;2;0;0;;;;{RIGHTARROW};;10000;;diskbänk.wav;;;;;0;{LEFTARROW};545;;;;;3;;Di;;;3
4;8;3;2;Möbel;;Badkar;;;low;;3;0;0;;;;{RIGHTARROW};;10000;;badkar.wav;;;;;0;{LEFTARROW};353;;;;;3;;Ba;;;3
4;8;3;2;Fågel;;Nötskrika;;;low;;1;1;1;;;;{LEFTARROW};;-10000;;nötskrika.wav;;;;;1;{LEFTARROW};392;392;;;;2;;Nö;;;3
4;8;3;2;Möbel;;Pinnstol;;;low;;1;1;1;;;;{RIGHTARROW};;10000;;pinnstol.wav;;;;;1;{RIGHTARROW};350;350;;;;3;;Pi;;;3
4;8;3;2;Fågel;;Undulat;;;low;;1;1;0;;;;{LEFTARROW};;-10000;;undulat.wav;;;;;0;{RIGHTARROW};518;;;;;2;;Un;;;3
4;8;3;3;;;;;;;;;;;;;;;;;;;;;;;;;;;;;;;;;;;
4;8;3;4;;Fågel;;Papegoja;RpMinus;;high;;;;3;0;0;;{RIGHTARROW};;10000;;papegoja.wav;;;;;;;;0;{LEFTARROW};1419;;2;;Pa;P;
4;8;3;4;;Textilmaterial;;Denim;NrpLow;;low;;;;1;1;1;;{LEFTARROW};;-10000;;denim.wav;;;;;;;;1;{LEFTARROW};284;;1;;De;D;
4;8;3;4;;Möbel;;Sekretär;RpPlus;;low;;;;1;1;0;;{RIGHTARROW};;10000;;sekretär.wav;;;;;;;;0;{LEFTARROW};379;;3;;Se;S;
4;8;3;4;;Möbel;;Pinnstol;RpPlus;;low;;;;1;1;1;;{RIGHTARROW};;10000;;pinnstol.wav;;;;;;;;1;{RIGHTARROW};310;;3;;Pi;P;
4;8;3;4;;Fågel;;Duva;RpMinus;;high;;;;3;0;0;;{RIGHTARROW};;10000;;duva.wav;;;;;;;;1;{RIGHTARROW};1220;;2;;Du;D;
4;8;3;4;;Fågel;;Rödhake;RpMinus;;high;;;;1;1;1;;{RIGHTARROW};;10000;;rödhake.wav;;;;;;;;1;{RIGHTARROW};429;;2;;Rö;R;
4;8;3;4;;Möbel;;Lampa;RpMinus;;high;;;;3;0;0;;{LEFTARROW};;-10000;;lampa.wav;;;;;;;;0;{RIGHTARROW};4420;;3;;La;L;
4;8;3;4;;Fågel;;Undulat;RpPlus;;low;;;;1;1;0;;{LEFTARROW};;-10000;;undulat.wav;;;;;;;;0;{RIGHTARROW};621;;2;;Un;U;
4;8;3;4;;Möbel;;Fåtölj;RpMinus;;high;;;;1;1;1;;{LEFTARROW};;-10000;;fåtölj.wav;;;;;;;;1;{LEFTARROW};1470;;3;;Få;F;
4;8;3;4;;Textilmaterial;;Frotté;NrpLow;;low;;;;3;0;0;;{LEFTARROW};;-10000;;frotté.wav;;;;;;;;0;{RIGHTARROW};670;;1;;Fr;F;
4;8;3;4;;Möbel;;Hylla;RpMinus;;high;;;;3;0;0;;{LEFTARROW};;-10000;;hylla.wav;;;;;;;;0;{RIGHTARROW};430;;3;;Hy;H;
4;8;3;4;;Fågel;;Kungsörn;RpPlus;;low;;;;1;1;1;;{LEFTARROW};;-10000;;kungsörn.wav;;;;;;;;1;{LEFTARROW};1623;;2;;Ku;K;
4;8;3;4;;Textilmaterial;;Polyester;NrpHigh;;high;;;;3;0;0;;{RIGHTARROW};;10000;;polyester.wav;;;;;;;;1;{RIGHTARROW};848;;1;;Po;P;
4;8;3;4;;Möbel;;Garderob;RpMinus;;high;;;;3;0;0;;{LEFTARROW};;-10000;;garderob.wav;;;;;;;;0;{RIGHTARROW};280;;3;;Ga;G;
4;8;3;4;;Textilmaterial;;Velour;NrpLow;;low;;;;1;1;1;;{LEFTARROW};;-10000;;velour.wav;;;;;;;;1;{LEFTARROW};517;;1;;Ve;V;
4;8;3;4;;Fågel;;Svala;RpMinus;;high;;;;3;0;0;;{RIGHTARROW};;10000;;svala.wav;;;;;;;;1;{RIGHTARROW};1802;;2;;Sv;S;
4;8;3;4;;Möbel;;Badkar;RpPlus;;low;;;;2;0;0;;{RIGHTARROW};;10000;;badkar.wav;;;;;;;;0;{LEFTARROW};330;;3;;Ba;B;
4;8;3;4;;Textilmaterial;;Sammet;NrpHigh;;high;;;;1;1;0;;{RIGHTARROW};;10000;;sammet.wav;;;;;;;;0;{LEFTARROW};359;;1;;Sa;S;
4;8;3;4;;Textilmaterial;;Manchester;NrpHigh;;high;;;;1;1;1;;{RIGHTARROW};;10000;;manchester.wav;;;;;;;;1;{RIGHTARROW};483;;1;;Ma;M;
4;8;3;4;;Textilmaterial;;Nylon;NrpHigh;;high;;;;1;1;0;;{RIGHTARROW};;10000;;nylon.wav;;;;;;;;0;{LEFTARROW};329;;1;;Ny;N;
4;8;3;4;;Fågel;;Häger;RpPlus;;low;;;;4;1;1;;{LEFTARROW};;-10000;;häger.wav;;;;;;;;1;{LEFTARROW};662;;2;;Hä;H;
4;8;3;4;;Textilmaterial;;Chiffong;NrpLow;;low;;;;1;1;1;;{LEFTARROW};;-10000;;chiffong.wav;;;;;;;;1;{LEFTARROW};806;;1;;Ch;C;
4;8;3;4;;Fågel;;Nötskrika;RpPlus;;low;;;;1;1;1;;{LEFTARROW};;-10000;;nötskrika.wav;;;;;;;;1;{LEFTARROW};992;;2;;Nö;N;
4;8;3;4;;Möbel;;Diskbänk;RpPlus;;low;;;;2;0;0;;{RIGHTARROW};;10000;;diskbänk.wav;;;;;;;;0;{LEFTARROW};371;;3;;Di;D;
5;;;;;;;;;;;;;;;;;;;;;;;;;;;;;;;;;;;;;;
5;1;4;1;;Leksak;;Pussel;NrpHigh;;high;;;;;;;;{RIGHTARROW};;10000;;pussel.wav;1;{RIGHTARROW};1456;;;;;;;;;3;;Pu;P;
5;1;4;1;;Transportmedel;;Snöskoter;RpPlus;;low;;;;;;;;{RIGHTARROW};;10000;;snöskoter.wav;1;{RIGHTARROW};871;;;;;;;;;1;;Sn;S;
5;1;4;1;;Transportmedel;;Lastbil;RpMinus;;high;;;;;;;;{LEFTARROW};;-10000;;lastbil.wav;1;{LEFTARROW};760;;;;;;;;;1;;La;L;
5;1;4;1;;Leksak;;Nalle;NrpHigh;;high;;;;;;;;{RIGHTARROW};;10000;;nalle.wav;1;{RIGHTARROW};672;;;;;;;;;3;;Na;N;
5;1;4;1;;Leksak;;Skallra;NrpLow;;low;;;;;;;;{LEFTARROW};;-10000;;skallra.wav;1;{LEFTARROW};1048;;;;;;;;;3;;Sk;S;
5;1;4;1;;Leksak;;Dockskåp;NrpLow;;low;;;;;;;;{LEFTARROW};;-10000;;dockskåp.wav;1;{LEFTARROW};660;;;;;;;;;3;;Do;D;
5;1;4;1;;Leksak;;Boll;NrpHigh;;high;;;;;;;;{RIGHTARROW};;10000;;boll.wav;1;{RIGHTARROW};718;;;;;;;;;3;;Bo;B;
5;1;4;1;;Transportmedel;;Moped;RpMinus;;high;;;;;;;;{LEFTARROW};;-10000;;moped.wav;1;{LEFTARROW};808;;;;;;;;;1;;Mo;M;
5;1;4;1;;Sjukdom;;Malaria;RpMinus;;high;;;;;;;;{RIGHTARROW};;10000;;malaria.wav;1;{RIGHTARROW};504;;;;;;;;;2;;Ma;M;
5;1;4;1;;Leksak;;Målarbok;NrpLow;;low;;;;;;;;{LEFTARROW};;-10000;;målarbok.wav;1;{LEFTARROW};875;;;;;;;;;3;;Må;M;
5;1;4;1;;Transportmedel;;Tunnelbana;RpMinus;;high;;;;;;;;{LEFTARROW};;-10000;;tunnelbana.wav;1;{LEFTARROW};747;;;;;;;;;1;;Tu;T;
5;1;4;1;;Sjukdom;;Njursten;RpPlus;;low;;;;;;;;{LEFTARROW};;-10000;;njursten.wav;1;{LEFTARROW};1135;;;;;;;;;2;;Nj;N;
5;1;4;1;;Sjukdom;;Alzheimer;RpMinus;;high;;;;;;;;{RIGHTARROW};;10000;;alzheimer.wav;1;{RIGHTARROW};448;;;;;;;;;2;;Al;A;
5;1;4;1;;Transportmedel;;Färja;RpPlus;;low;;;;;;;;{RIGHTARROW};;10000;;färja.wav;1;{RIGHTARROW};876;;;;;;;;;1;;Fä;F;
5;1;4;1;;Sjukdom;;Diabetes;RpMinus;;high;;;;;;;;{RIGHTARROW};;10000;;diabetes.wav;1;{RIGHTARROW};732;;;;;;;;;2;;Di;D;
5;1;4;1;;Transportmedel;;Rymdskepp;RpPlus;;low;;;;;;;;{RIGHTARROW};;10000;;rymdskepp.wav;1;{RIGHTARROW};880;;;;;;;;;1;;Ry;R;
5;1;4;1;;Sjukdom;;Gulsot;RpPlus;;low;;;;;;;;{LEFTARROW};;-10000;;gulsot.wav;1;{LEFTARROW};1117;;;;;;;;;2;;Gu;G;
5;1;4;1;;Sjukdom;;Epilepsi;RpPlus;;low;;;;;;;;{LEFTARROW};;-10000;;epilepsi.wav;1;{LEFTARROW};1057;;;;;;;;;2;;Ep;E;
5;1;4;1;;Leksak;;Gunghäst;NrpHigh;;high;;;;;;;;{RIGHTARROW};;10000;;gunghäst.wav;1;{RIGHTARROW};714;;;;;;;;;3;;Gu;G;
5;1;4;1;;Sjukdom;;Influensa;RpMinus;;high;;;;;;;;{RIGHTARROW};;10000;;influensa.wav;1;{RIGHTARROW};854;;;;;;;;;2;;In;I;
5;1;4;1;;Transportmedel;;Helikopter;RpMinus;;high;;;;;;;;{LEFTARROW};;-10000;;helikopter.wav;1;{LEFTARROW};642;;;;;;;;;1;;He;H;
5;1;4;1;;Transportmedel;;Ubåt;RpPlus;;low;;;;;;;;{RIGHTARROW};;10000;;ubåt.wav;1;{RIGHTARROW};730;;;;;;;;;1;;Ub;U;
5;1;4;1;;Leksak;;Jojo;NrpLow;;low;;;;;;;;{LEFTARROW};;-10000;;jojo.wav;1;{LEFTARROW};1101;;;;;;;;;3;;Jo;J;
5;1;4;1;;Sjukdom;;Herpes;RpPlus;;low;;;;;;;;{LEFTARROW};;-10000;;herpes.wav;1;{LEFTARROW};884;;;;;;;;;2;;He;H;
5;1;4;2;Transportmedel;;Rymdskepp;;;low;;3;0;0;;;;{RIGHTARROW};;10000;;rymdskepp.wav;;;;;1;{RIGHTARROW};2811;;;;;1;;Ry;;;1
5;1;4;2;Sjukdom;;Epilepsi;;;low;;1;1;1;;;;{LEFTARROW};;-10000;;epilepsi.wav;;;;;1;{LEFTARROW};3952;3952;;;;2;;Ep;;;1
5;1;4;2;Transportmedel;;Färja;;;low;;1;1;1;;;;{RIGHTARROW};;10000;;färja.wav;;;;;1;{RIGHTARROW};4184;4184;;;;1;;Fä;;;1
5;1;4;2;Sjukdom;;Herpes;;;low;;1;1;1;;;;{LEFTARROW};;-10000;;herpes.wav;;;;;1;{LEFTARROW};2263;2263;;;;2;;He;;;1
5;1;4;2;Transportmedel;;Snöskoter;;;low;;1;1;1;;;;{RIGHTARROW};;10000;;snöskoter.wav;;;;;1;{RIGHTARROW};1731;1731;;;;1;;Sn;;;1
5;1;4;2;Sjukdom;;Njursten;;;low;;1;1;0;;;;{LEFTARROW};;-10000;;njursten.wav;;;;;0;{RIGHTARROW};2868;;;;;2;;Nj;;;1
5;1;4;2;Transportmedel;;Ubåt;;;low;;1;1;0;;;;{RIGHTARROW};;10000;;ubåt.wav;;;;;0;{LEFTARROW};1464;;;;;1;;Ub;;;1
5;1;4;2;Sjukdom;;Gulsot;;;low;;1;1;1;;;;{LEFTARROW};;-10000;;gulsot.wav;;;;;1;{LEFTARROW};2516;2516;;;;2;;Gu;;;1
5;1;4;2;Transportmedel;;Snöskoter;;;low;;1;1;1;;;;{RIGHTARROW};;10000;;snöskoter.wav;;;;;1;{RIGHTARROW};2788;2788;;;;1;;Sn;;;2
5;1;4;2;Transportmedel;;Färja;;;low;;1;1;1;;;;{RIGHTARROW};;10000;;färja.wav;;;;;1;{RIGHTARROW};1225;1225;;;;1;;Fä;;;2
5;1;4;2;Transportmedel;;Ubåt;;;low;;1;1;0;;;;{RIGHTARROW};;10000;;ubåt.wav;;;;;0;{LEFTARROW};3104;;;;;1;;Ub;;;2
5;1;4;2;Sjukdom;;Njursten;;;low;;1;1;1;;;;{LEFTARROW};;-10000;;njursten.wav;;;;;1;{LEFTARROW};1818;1818;;;;2;;Nj;;;2
5;1;4;2;Transportmedel;;Rymdskepp;;;low;;3;0;0;;;;{RIGHTARROW};;10000;;rymdskepp.wav;;;;;1;{RIGHTARROW};3574;;;;;1;;Ry;;;2
5;1;4;2;Sjukdom;;Epilepsi;;;low;;1;1;0;;;;{LEFTARROW};;-10000;;epilepsi.wav;;;;;0;{RIGHTARROW};3438;;;;;2;;Ep;;;2
5;1;4;2;Sjukdom;;Gulsot;;;low;;1;1;0;;;;{LEFTARROW};;-10000;;gulsot.wav;;;;;0;{RIGHTARROW};3163;;;;;2;;Gu;;;2
5;1;4;2;Sjukdom;;Herpes;;;low;;1;1;0;;;;{LEFTARROW};;-10000;;herpes.wav;;;;;0;{RIGHTARROW};3154;;;;;2;;He;;;2
5;1;4;2;Sjukdom;;Njursten;;;low;;1;1;0;;;;{LEFTARROW};;-10000;;njursten.wav;;;;;0;{RIGHTARROW};1098;;;;;2;;Nj;;;3
5;1;4;2;Sjukdom;;Epilepsi;;;low;;1;1;0;;;;{LEFTARROW};;-10000;;epilepsi.wav;;;;;0;{RIGHTARROW};1332;;;;;2;;Ep;;;3
5;1;4;2;Transportmedel;;Ubåt;;;low;;1;1;1;;;;{RIGHTARROW};;10000;;ubåt.wav;;;;;1;{RIGHTARROW};3156;3156;;;;1;;Ub;;;3
5;1;4;2;Transportmedel;;Rymdskepp;;;low;;3;0;0;;;;{RIGHTARROW};;10000;;rymdskepp.wav;;;;;1;{RIGHTARROW};1532;;;;;1;;Ry;;;3
5;1;4;2;Transportmedel;;Snöskoter;;;low;;1;1;1;;;;{RIGHTARROW};;10000;;snöskoter.wav;;;;;1;{RIGHTARROW};2965;2965;;;;1;;Sn;;;3
5;1;4;2;Sjukdom;;Gulsot;;;low;;1;1;0;;;;{LEFTARROW};;-10000;;gulsot.wav;;;;;0;{RIGHTARROW};869;;;;;2;;Gu;;;3
5;1;4;2;Transportmedel;;Färja;;;low;;1;1;0;;;;{RIGHTARROW};;10000;;färja.wav;;;;;0;{LEFTARROW};3113;;;;;1;;Fä;;;3
5;1;4;2;Sjukdom;;Herpes;;;low;;1;1;1;;;;{LEFTARROW};;-10000;;herpes.wav;;;;;1;{LEFTARROW};2913;2913;;;;2;;He;;;3
5;1;4;3;;;;;;;;;;;;;;;;;;;;;;;;;;;;;;;;;;;
5;1;4;4;;Sjukdom;;Diabetes;RpMinus;;high;;;;3;0;0;;{RIGHTARROW};;10000;;diabetes.wav;;;;;;;;0;{LEFTARROW};5411;;2;;Di;D;
5;1;4;4;;Leksak;;Dockskåp;NrpLow;;low;;;;3;0;0;;{LEFTARROW};;-10000;;dockskåp.wav;;;;;;;;0;{RIGHTARROW};9958;;3;;Do;D;
5;1;4;4;;Transportmedel;;Tunnelbana;RpMinus;;high;;;;1;1;0;;{LEFTARROW};;-10000;;tunnelbana.wav;;;;;;;;0;{RIGHTARROW};1905;;1;;Tu;T;
5;1;4;4;;Leksak;;Målarbok;NrpLow;;low;;;;3;0;0;;{LEFTARROW};;-10000;;målarbok.wav;;;;;;;;1;{LEFTARROW};8608;;3;;Må;M;
5;1;4;4;;Sjukdom;;Influensa;RpMinus;;high;;;;1;1;1;;{RIGHTARROW};;10000;;influensa.wav;;;;;;;;1;{RIGHTARROW};7620;;2;;In;I;
5;1;4;4;;Transportmedel;;Moped;RpMinus;;high;;;;1;1;0;;{LEFTARROW};;-10000;;moped.wav;;;;;;;;0;{RIGHTARROW};3005;;1;;Mo;M;
5;1;4;4;;Leksak;;Gunghäst;NrpHigh;;high;;;;3;0;0;;{RIGHTARROW};;10000;;gunghäst.wav;;;;;;;;1;{RIGHTARROW};7583;;3;;Gu;G;
5;1;4;4;;Sjukdom;;Njursten;RpPlus;;low;;;;1;1;1;;{LEFTARROW};;-10000;;njursten.wav;;;;;;;;1;{LEFTARROW};3770;;2;;Nj;N;
5;1;4;4;;Sjukdom;;Alzheimer;RpMinus;;high;;;;1;1;0;;{RIGHTARROW};;10000;;alzheimer.wav;;;;;;;;0;{LEFTARROW};1438;;2;;Al;A;
5;1;4;4;;Leksak;;Skallra;NrpLow;;low;;;;3;0;0;;{LEFTARROW};;-10000;;skallra.wav;;;;;;;;0;{RIGHTARROW};8831;;3;;Sk;S;
5;1;4;4;;Transportmedel;;Snöskoter;RpPlus;;low;;;;1;1;1;;{RIGHTARROW};;10000;;snöskoter.wav;;;;;;;;1;{RIGHTARROW};2506;;1;;Sn;S;
5;1;4;4;;Leksak;;Boll;NrpHigh;;high;;;;3;0;0;;{RIGHTARROW};;10000;;boll.wav;;;;;;;;1;{RIGHTARROW};8528;;3;;Bo;B;
5;1;4;4;;Transportmedel;;Rymdskepp;RpPlus;;low;;;;3;0;0;;{RIGHTARROW};;10000;;rymdskepp.wav;;;;;;;;1;{RIGHTARROW};7333;;1;;Ry;R;
5;1;4;4;;Sjukdom;;Gulsot;RpPlus;;low;;;;1;1;0;;{LEFTARROW};;-10000;;gulsot.wav;;;;;;;;0;{RIGHTARROW};1817;;2;;Gu;G;
5;1;4;4;;Transportmedel;;Färja;RpPlus;;low;;;;1;1;1;;{RIGHTARROW};;10000;;färja.wav;;;;;;;;1;{RIGHTARROW};3339;;1;;Fä;F;
5;1;4;4;;Leksak;;Nalle;NrpHigh;;high;;;;3;0;0;;{RIGHTARROW};;10000;;nalle.wav;;;;;;;;1;{RIGHTARROW};8208;;3;;Na;N;
5;1;4;4;;Leksak;;Pussel;NrpHigh;;high;;;;3;0;0;;{RIGHTARROW};;10000;;pussel.wav;;;;;;;;1;{RIGHTARROW};9955;;3;;Pu;P;
5;1;4;4;;Sjukdom;;Malaria;RpMinus;;high;;;;1;1;1;;{RIGHTARROW};;10000;;malaria.wav;;;;;;;;1;{RIGHTARROW};2544;;2;;Ma;M;
5;1;4;4;;Sjukdom;;Epilepsi;RpPlus;;low;;;;1;1;0;;{LEFTARROW};;-10000;;epilepsi.wav;;;;;;;;0;{RIGHTARROW};2005;;2;;Ep;E;
5;1;4;4;;Transportmedel;;Helikopter;RpMinus;;high;;;;1;1;1;;{LEFTARROW};;-10000;;helikopter.wav;;;;;;;;1;{LEFTARROW};1953;;1;;He;H;
5;1;4;4;;Sjukdom;;Herpes;RpPlus;;low;;;;1;1;1;;{LEFTARROW};;-10000;;herpes.wav;;;;;;;;1;{LEFTARROW};1246;;2;;He;H;
5;1;4;4;;Leksak;;Jojo;NrpLow;;low;;;;3;0;0;;{LEFTARROW};;-10000;;jojo.wav;;;;;;;;0;{RIGHTARROW};2821;;3;;Jo;J;
5;1;4;4;;Transportmedel;;Lastbil;RpMinus;;high;;;;1;1;1;;{LEFTARROW};;-10000;;lastbil.wav;;;;;;;;1;{LEFTARROW};3311;;1;;La;L;
5;1;4;4;;Transportmedel;;Ubåt;RpPlus;;low;;;;1;1;1;;{RIGHTARROW};;10000;;ubåt.wav;;;;;;;;1;{RIGHTARROW};1958;;1;;Ub;U;
5;2;1;1;;Krydda;;Saffran;NrpHigh;;high;;;;;;;;{LEFTARROW};;-10000;;saffran.wav;0;;0;;;;;;;;;3;;Sa;S;
5;2;1;1;;Krydda;;Rosmarin;NrpHigh;;high;;;;;;;;{LEFTARROW};;-10000;;rosmarin.wav;1;{LEFTARROW};617;;;;;;;;;3;;Ro;R;
5;2;1;1;;Frukt;;Mango;RpMinus;;high;;;;;;;;{RIGHTARROW};;10000;;mango.wav;1;{RIGHTARROW};576;;;;;;;;;1;;Ma;M;
5;2;1;1;;Frukt;;Vindruva;RpMinus;;high;;;;;;;;{RIGHTARROW};;10000;;vindruva.wav;1;{RIGHTARROW};632;;;;;;;;;1;;Vi;V;
5;2;1;1;;Frukt;;Citron;RpMinus;;high;;;;;;;;{RIGHTARROW};;10000;;citron.wav;1;{RIGHTARROW};534;;;;;;;;;1;;Ci;C;
5;2;1;1;;Frukt;;Pomerans;RpPlus;;low;;;;;;;;{LEFTARROW};;-10000;;pomerans.wav;1;{LEFTARROW};576;;;;;;;;;1;;Po;P;
5;2;1;1;;Frukt;;Satsuma;RpPlus;;low;;;;;;;;{LEFTARROW};;-10000;;satsuma.wav;1;{LEFTARROW};544;;;;;;;;;1;;Sa;S;
5;2;1;1;;Fotbeklädnad;;Känga;RpMinus;;high;;;;;;;;{LEFTARROW};;-10000;;känga.wav;1;{LEFTARROW};638;;;;;;;;;2;;Kä;K;
5;2;1;1;;Fotbeklädnad;;Damask;RpPlus;;low;;;;;;;;{RIGHTARROW};;10000;;damask.wav;1;{RIGHTARROW};677;;;;;;;;;2;;Da;D;
5;2;1;1;;Fotbeklädnad;;Boots;RpPlus;;low;;;;;;;;{RIGHTARROW};;10000;;boots.wav;1;{RIGHTARROW};554;;;;;;;;;2;;Bo;B;
5;2;1;1;;Krydda;;Oregano;NrpHigh;;high;;;;;;;;{LEFTARROW};;-10000;;oregano.wav;1;{LEFTARROW};833;;;;;;;;;3;;Or;O;
5;2;1;1;;Frukt;;Fikon;RpPlus;;low;;;;;;;;{LEFTARROW};;-10000;;fikon.wav;1;{LEFTARROW};692;;;;;;;;;1;;Fi;F;
5;2;1;1;;Fotbeklädnad;;Pumps;RpMinus;;high;;;;;;;;{LEFTARROW};;-10000;;pumps.wav;1;{LEFTARROW};537;;;;;;;;;2;;Pu;P;
5;2;1;1;;Fotbeklädnad;;Nätstrumpa;RpPlus;;low;;;;;;;;{RIGHTARROW};;10000;;nätstrumpa.wav;1;{RIGHTARROW};566;;;;;;;;;2;;Nä;N;
5;2;1;1;;Krydda;;Basilika;NrpHigh;;high;;;;;;;;{LEFTARROW};;-10000;;basilika.wav;1;{LEFTARROW};691;;;;;;;;;3;;Ba;B;
5;2;1;1;;Fotbeklädnad;;Toffel;RpMinus;;high;;;;;;;;{LEFTARROW};;-10000;;toffel.wav;1;{LEFTARROW};1129;;;;;;;;;2;;To;T;
5;2;1;1;;Krydda;;Koriander;NrpLow;;low;;;;;;;;{RIGHTARROW};;10000;;koriander.wav;1;{RIGHTARROW};449;;;;;;;;;3;;Ko;K;
5;2;1;1;;Fotbeklädnad;;Socka;RpMinus;;high;;;;;;;;{LEFTARROW};;-10000;;socka.wav;1;{LEFTARROW};596;;;;;;;;;2;;So;S;
5;2;1;1;;Fotbeklädnad;;Raggsocka;RpPlus;;low;;;;;;;;{RIGHTARROW};;10000;;raggsocka.wav;1;{RIGHTARROW};627;;;;;;;;;2;;Ra;R;
5;2;1;1;;Frukt;;Ananas;RpMinus;;high;;;;;;;;{RIGHTARROW};;10000;;ananas.wav;1;{RIGHTARROW};606;;;;;;;;;1;;An;A;
5;2;1;1;;Krydda;;Wasabi;NrpLow;;low;;;;;;;;{RIGHTARROW};;10000;;wasabi.wav;1;{RIGHTARROW};525;;;;;;;;;3;;Wa;W;
5;2;1;1;;Krydda;;Anis;NrpLow;;low;;;;;;;;{RIGHTARROW};;10000;;anis.wav;1;{RIGHTARROW};604;;;;;;;;;3;;An;A;
5;2;1;1;;Krydda;;Muskot;NrpLow;;low;;;;;;;;{RIGHTARROW};;10000;;muskot.wav;1;{RIGHTARROW};649;;;;;;;;;3;;Mu;M;
5;2;1;1;;Frukt;;Guava;RpPlus;;low;;;;;;;;{LEFTARROW};;-10000;;guava.wav;1;{LEFTARROW};738;;;;;;;;;1;;Gu;G;
5;2;1;2;Frukt;;Pomerans;;;low;;1;1;1;;;;{LEFTARROW};;-10000;;pomerans.wav;;;;;1;{LEFTARROW};2134;2134;;;;1;;Po;;;1
5;2;1;2;Fotbeklädnad;;Raggsocka;;;low;;1;1;0;;;;{RIGHTARROW};;10000;;raggsocka.wav;;;;;0;{LEFTARROW};1687;;;;;2;;Ra;;;1
5;2;1;2;Frukt;;Satsuma;;;low;;1;1;0;;;;{LEFTARROW};;-10000;;satsuma.wav;;;;;0;{RIGHTARROW};1627;;;;;1;;Sa;;;1
5;2;1;2;Frukt;;Guava;;;low;;1;1;1;;;;{LEFTARROW};;-10000;;guava.wav;;;;;1;{LEFTARROW};1711;1711;;;;1;;Gu;;;1
5;2;1;2;Frukt;;Fikon;;;low;;1;1;1;;;;{LEFTARROW};;-10000;;fikon.wav;;;;;1;{LEFTARROW};2017;2017;;;;1;;Fi;;;1
5;2;1;2;Fotbeklädnad;;Nätstrumpa;;;low;;1;1;1;;;;{RIGHTARROW};;10000;;nätstrumpa.wav;;;;;1;{RIGHTARROW};1447;1447;;;;2;;Nä;;;1
5;2;1;2;Fotbeklädnad;;Boots;;;low;;1;1;1;;;;{RIGHTARROW};;10000;;boots.wav;;;;;1;{RIGHTARROW};497;497;;;;2;;Bo;;;1
5;2;1;2;Fotbeklädnad;;Damask;;;low;;1;1;1;;;;{RIGHTARROW};;10000;;damask.wav;;;;;1;{RIGHTARROW};466;466;;;;2;;Da;;;1
5;2;1;2;Frukt;;Fikon;;;low;;1;1;1;;;;{LEFTARROW};;-10000;;fikon.wav;;;;;1;{LEFTARROW};2517;2517;;;;1;;Fi;;;2
5;2;1;2;Fotbeklädnad;;Boots;;;low;;1;1;1;;;;{RIGHTARROW};;10000;;boots.wav;;;;;1;{RIGHTARROW};775;775;;;;2;;Bo;;;2
5;2;1;2;Frukt;;Pomerans;;;low;;1;1;0;;;;{LEFTARROW};;-10000;;pomerans.wav;;;;;0;{RIGHTARROW};1646;;;;;1;;Po;;;2
5;2;1;2;Fotbeklädnad;;Raggsocka;;;low;;1;1;0;;;;{RIGHTARROW};;10000;;raggsocka.wav;;;;;0;{LEFTARROW};995;;;;;2;;Ra;;;2
5;2;1;2;Frukt;;Satsuma;;;low;;1;1;0;;;;{LEFTARROW};;-10000;;satsuma.wav;;;;;0;{RIGHTARROW};2353;;;;;1;;Sa;;;2
5;2;1;2;Fotbeklädnad;;Damask;;;low;;1;1;1;;;;{RIGHTARROW};;10000;;damask.wav;;;;;1;{RIGHTARROW};1657;1657;;;;2;;Da;;;2
5;2;1;2;Frukt;;Guava;;;low;;1;1;1;;;;{LEFTARROW};;-10000;;guava.wav;;;;;1;{LEFTARROW};3037;3037;;;;1;;Gu;;;2
5;2;1;2;Fotbeklädnad;;Nätstrumpa;;;low;;1;1;1;;;;{RIGHTARROW};;10000;;nätstrumpa.wav;;;;;1;{RIGHTARROW};746;746;;;;2;;Nä;;;2
5;2;1;2;Frukt;;Fikon;;;low;;1;1;1;;;;{LEFTARROW};;-10000;;fikon.wav;;;;;1;{LEFTARROW};2449;2449;;;;1;;Fi;;;3
5;2;1;2;Fotbeklädnad;;Raggsocka;;;low;;1;1;1;;;;{RIGHTARROW};;10000;;raggsocka.wav;;;;;1;{RIGHTARROW};1205;1205;;;;2;;Ra;;;3
5;2;1;2;Frukt;;Satsuma;;;low;;1;1;0;;;;{LEFTARROW};;-10000;;satsuma.wav;;;;;0;{RIGHTARROW};668;;;;;1;;Sa;;;3
5;2;1;2;Fotbeklädnad;;Boots;;;low;;1;1;1;;;;{RIGHTARROW};;10000;;boots.wav;;;;;1;{RIGHTARROW};1015;1015;;;;2;;Bo;;;3
5;2;1;2;Fotbeklädnad;;Nätstrumpa;;;low;;1;1;1;;;;{RIGHTARROW};;10000;;nätstrumpa.wav;;;;;1;{RIGHTARROW};612;612;;;;2;;Nä;;;3
5;2;1;2;Fotbeklädnad;;Damask;;;low;;1;1;1;;;;{RIGHTARROW};;10000;;damask.wav;;;;;1;{RIGHTARROW};1025;1025;;;;2;;Da;;;3
5;2;1;2;Frukt;;Guava;;;low;;1;1;0;;;;{LEFTARROW};;-10000;;guava.wav;;;;;0;{RIGHTARROW};1295;;;;;1;;Gu;;;3
5;2;1;2;Frukt;;Pomerans;;;low;;1;1;1;;;;{LEFTARROW};;-10000;;pomerans.wav;;;;;1;{LEFTARROW};2209;2209;;;;1;;Po;;;3
5;2;1;3;;;;;;;;;;;;;;;;;;;;;;;;;;;;;;;;;;;
5;2;1;4;;Krydda;;Oregano;NrpHigh;;high;;;;1;1;1;;{LEFTARROW};;-10000;;oregano.wav;;;;;;;;1;{LEFTARROW};557;;3;;Or;O;
5;2;1;4;;Krydda;;Rosmarin;NrpHigh;;high;;;;1;1;1;;{LEFTARROW};;-10000;;rosmarin.wav;;;;;;;;1;{LEFTARROW};1905;;3;;Ro;R;
5;2;1;4;;Frukt;;Pomerans;RpPlus;;low;;;;1;1;0;;{LEFTARROW};;-10000;;pomerans.wav;;;;;;;;0;{RIGHTARROW};624;;1;;Po;P;
5;2;1;4;;Krydda;;Basilika;NrpHigh;;high;;;;1;1;1;;{LEFTARROW};;-10000;;basilika.wav;;;;;;;;1;{LEFTARROW};1234;;3;;Ba;B;
5;2;1;4;;Fotbeklädnad;;Boots;RpPlus;;low;;;;1;1;1;;{RIGHTARROW};;10000;;boots.wav;;;;;;;;1;{RIGHTARROW};636;;2;;Bo;B;
5;2;1;4;;Frukt;;Mango;RpMinus;;high;;;;1;1;1;;{RIGHTARROW};;10000;;mango.wav;;;;;;;;1;{RIGHTARROW};1134;;1;;Ma;M;
5;2;1;4;;Krydda;;Anis;NrpLow;;low;;;;1;1;1;;{RIGHTARROW};;10000;;anis.wav;;;;;;;;1;{RIGHTARROW};1323;;3;;An;A;
5;2;1;4;;Fotbeklädnad;;Socka;RpMinus;;high;;;;1;1;0;;{LEFTARROW};;-10000;;socka.wav;;;;;;;;0;{RIGHTARROW};2929;;2;;So;S;
5;2;1;4;;Fotbeklädnad;;Damask;RpPlus;;low;;;;1;1;1;;{RIGHTARROW};;10000;;damask.wav;;;;;;;;1;{RIGHTARROW};2165;;2;;Da;D;
5;2;1;4;;Krydda;;Wasabi;NrpLow;;low;;;;1;1;1;;{RIGHTARROW};;10000;;wasabi.wav;;;;;;;;1;{RIGHTARROW};2906;;3;;Wa;W;
5;2;1;4;;Frukt;;Guava;RpPlus;;low;;;;1;1;0;;{LEFTARROW};;-10000;;guava.wav;;;;;;;;0;{RIGHTARROW};3377;;1;;Gu;G;
5;2;1;4;;Frukt;;Ananas;RpMinus;;high;;;;1;1;0;;{RIGHTARROW};;10000;;ananas.wav;;;;;;;;0;{LEFTARROW};1236;;1;;An;A;
5;2;1;4;;Krydda;;Saffran;NrpHigh;;high;;;;1;1;0;;{LEFTARROW};;-10000;;saffran.wav;;;;;;;;0;{RIGHTARROW};1228;;3;;Sa;S;
5;2;1;4;;Fotbeklädnad;;Nätstrumpa;RpPlus;;low;;;;1;1;1;;{RIGHTARROW};;10000;;nätstrumpa.wav;;;;;;;;1;{RIGHTARROW};630;;2;;Nä;N;
5;2;1;4;;Fotbeklädnad;;Pumps;RpMinus;;high;;;;3;0;0;;{LEFTARROW};;-10000;;pumps.wav;;;;;;;;0;{RIGHTARROW};1767;;2;;Pu;P;
5;2;1;4;;Fotbeklädnad;;Känga;RpMinus;;high;;;;3;0;0;;{LEFTARROW};;-10000;;känga.wav;;;;;;;;0;{RIGHTARROW};4300;;2;;Kä;K;
5;2;1;4;;Frukt;;Satsuma;RpPlus;;low;;;;1;1;1;;{LEFTARROW};;-10000;;satsuma.wav;;;;;;;;1;{LEFTARROW};619;;1;;Sa;S;
5;2;1;4;;Frukt;;Vindruva;RpMinus;;high;;;;3;0;0;;{RIGHTARROW};;10000;;vindruva.wav;;;;;;;;0;{LEFTARROW};2557;;1;;Vi;V;
5;2;1;4;;Krydda;;Muskot;NrpLow;;low;;;;1;1;1;;{RIGHTARROW};;10000;;muskot.wav;;;;;;;;1;{RIGHTARROW};1296;;3;;Mu;M;
5;2;1;4;;Fotbeklädnad;;Raggsocka;RpPlus;;low;;;;1;1;1;;{RIGHTARROW};;10000;;raggsocka.wav;;;;;;;;1;{RIGHTARROW};1959;;2;;Ra;R;
5;2;1;4;;Frukt;;Fikon;RpPlus;;low;;;;1;1;0;;{LEFTARROW};;-10000;;fikon.wav;;;;;;;;0;{RIGHTARROW};1236;;1;;Fi;F;
5;2;1;4;;Frukt;;Citron;RpMinus;;high;;;;1;1;1;;{RIGHTARROW};;10000;;citron.wav;;;;;;;;1;{RIGHTARROW};1758;;1;;Ci;C;
5;2;1;4;;Krydda;;Koriander;NrpLow;;low;;;;3;0;0;;{RIGHTARROW};;10000;;koriander.wav;;;;;;;;0;{LEFTARROW};1811;;3;;Ko;K;
5;2;1;4;;Fotbeklädnad;;Toffel;RpMinus;;high;;;;3;0;0;;{LEFTARROW};;-10000;;toffel.wav;;;;;;;;0;{RIGHTARROW};2086;;2;;To;T;
5;3;2;1;;Blomma;;Hundkäx;RpPlus;;low;;;;;;;;{RIGHTARROW};;10000;;hundkäx.wav;1;{RIGHTARROW};639;;;;;;;;;1;;Hu;H;
5;3;2;1;;Fyrbent djur;;Giraff;RpMinus;;high;;;;;;;;{RIGHTARROW};;10000;;giraff.wav;1;{RIGHTARROW};858;;;;;;;;;2;;Gi;G;
5;3;2;1;;Fyrbent djur;;Råtta;RpMinus;;high;;;;;;;;{RIGHTARROW};;10000;;råtta.wav;1;{RIGHTARROW};702;;;;;;;;;2;;Rå;R;
5;3;2;1;;Blomma;;Lilja;RpMinus;;high;;;;;;;;{LEFTARROW};;-10000;;lilja.wav;1;{LEFTARROW};1065;;;;;;;;;1;;Li;L;
5;3;2;1;;Blomma;;Vitsippa;RpMinus;;high;;;;;;;;{LEFTARROW};;-10000;;vitsippa.wav;1;{LEFTARROW};517;;;;;;;;;1;;Vi;V;
5;3;2;1;;Dansstil;;Salsa;NrpHigh;;high;;;;;;;;{RIGHTARROW};;10000;;salsa.wav;1;{RIGHTARROW};681;;;;;;;;;3;;Sa;S;
5;3;2;1;;Fyrbent djur;;Ekorre;RpPlus;;low;;;;;;;;{LEFTARROW};;-10000;;ekorre.wav;1;{LEFTARROW};702;;;;;;;;;2;;Ek;E;
5;3;2;1;;Blomma;;Krokus;RpPlus;;low;;;;;;;;{RIGHTARROW};;10000;;krokus.wav;1;{RIGHTARROW};388;;;;;;;;;1;;Kr;K;
5;3;2;1;;Fyrbent djur;;Hyena;RpPlus;;low;;;;;;;;{LEFTARROW};;-10000;;hyena.wav;1;{LEFTARROW};1018;;;;;;;;;2;;Hy;H;
5;3;2;1;;Dansstil;;Lambada;NrpLow;;low;;;;;;;;{LEFTARROW};;-10000;;lambada.wav;1;{LEFTARROW};1096;;;;;;;;;3;;La;L;
5;3;2;1;;Dansstil;;Polka;NrpHigh;;high;;;;;;;;{RIGHTARROW};;10000;;polka.wav;1;{RIGHTARROW};986;;;;;;;;;3;;Po;P;
5;3;2;1;;Blomma;;Tussilago;RpMinus;;high;;;;;;;;{LEFTARROW};;-10000;;tussilago.wav;1;{LEFTARROW};643;;;;;;;;;1;;Tu;T;
5;3;2;1;;Dansstil;;Rumba;NrpLow;;low;;;;;;;;{LEFTARROW};;-10000;;rumba.wav;1;{LEFTARROW};940;;;;;;;;;3;;Ru;R;
5;3;2;1;;Blomma;;Dahlia;RpPlus;;low;;;;;;;;{RIGHTARROW};;10000;;dahlia.wav;1;{RIGHTARROW};525;;;;;;;;;1;;Da;D;
5;3;2;1;;Dansstil;;Wienervals;NrpLow;;low;;;;;;;;{LEFTARROW};;-10000;;wienervals.wav;1;{LEFTARROW};798;;;;;;;;;3;;Wi;W;
5;3;2;1;;Fyrbent djur;;Lejon;RpMinus;;high;;;;;;;;{RIGHTARROW};;10000;;lejon.wav;1;{RIGHTARROW};848;;;;;;;;;2;;Le;L;
5;3;2;1;;Dansstil;;Balett;NrpHigh;;high;;;;;;;;{RIGHTARROW};;10000;;balett.wav;1;{RIGHTARROW};766;;;;;;;;;3;;Ba;B;
5;3;2;1;;Fyrbent djur;;Panter;RpPlus;;low;;;;;;;;{LEFTARROW};;-10000;;panter.wav;1;{LEFTARROW};964;;;;;;;;;2;;Pa;P;
5;3;2;1;;Fyrbent djur;;Dromedar;RpPlus;;low;;;;;;;;{LEFTARROW};;-10000;;dromedar.wav;1;{LEFTARROW};687;;;;;;;;;2;;Dr;D;
5;3;2;1;;Dansstil;;Foxtrot;NrpHigh;;high;;;;;;;;{RIGHTARROW};;10000;;foxtrot.wav;1;{RIGHTARROW};700;;;;;;;;;3;;Fo;F;
5;3;2;1;;Dansstil;;Twist;NrpLow;;low;;;;;;;;{LEFTARROW};;-10000;;twist.wav;1;{LEFTARROW};520;;;;;;;;;3;;Tw;T;
5;3;2;1;;Fyrbent djur;;Tiger;RpMinus;;high;;;;;;;;{RIGHTARROW};;10000;;tiger.wav;1;{RIGHTARROW};678;;;;;;;;;2;;Ti;T;
5;3;2;1;;Blomma;;Blåklocka;RpMinus;;high;;;;;;;;{LEFTARROW};;-10000;;blåklocka.wav;1;{LEFTARROW};759;;;;;;;;;1;;Bl;B;
5;3;2;1;;Blomma;;Iris;RpPlus;;low;;;;;;;;{RIGHTARROW};;10000;;iris.wav;1;{RIGHTARROW};648;;;;;;;;;1;;Ir;I;
5;3;2;2;Blomma;;Dahlia;;;low;;1;1;0;;;;{RIGHTARROW};;10000;;dahlia.wav;;;;;0;{LEFTARROW};1075;;;;;1;;Da;;;1
5;3;2;2;Fyrbent djur;;Hyena;;;low;;1;1;1;;;;{LEFTARROW};;-10000;;hyena.wav;;;;;1;{LEFTARROW};1454;1454;;;;2;;Hy;;;1
5;3;2;2;Fyrbent djur;;Panter;;;low;;1;1;1;;;;{LEFTARROW};;-10000;;panter.wav;;;;;1;{LEFTARROW};1290;1290;;;;2;;Pa;;;1
5;3;2;2;Blomma;;Iris;;;low;;1;1;1;;;;{RIGHTARROW};;10000;;iris.wav;;;;;1;{RIGHTARROW};1309;1309;;;;1;;Ir;;;1
5;3;2;2;Fyrbent djur;;Dromedar;;;low;;1;1;1;;;;{LEFTARROW};;-10000;;dromedar.wav;;;;;1;{LEFTARROW};1327;1327;;;;2;;Dr;;;1
5;3;2;2;Fyrbent djur;;Ekorre;;;low;;1;1;1;;;;{LEFTARROW};;-10000;;ekorre.wav;;;;;1;{LEFTARROW};1552;1552;;;;2;;Ek;;;1
5;3;2;2;Blomma;;Krokus;;;low;;3;0;0;;;;{RIGHTARROW};;10000;;krokus.wav;;;;;1;{RIGHTARROW};1673;;;;;1;;Kr;;;1
5;3;2;2;Blomma;;Hundkäx;;;low;;3;0;0;;;;{RIGHTARROW};;10000;;hundkäx.wav;;;;;1;{RIGHTARROW};2045;;;;;1;;Hu;;;1
5;3;2;2;Fyrbent djur;;Ekorre;;;low;;1;1;0;;;;{LEFTARROW};;-10000;;ekorre.wav;;;;;0;{RIGHTARROW};1216;;;;;2;;Ek;;;2
5;3;2;2;Fyrbent djur;;Dromedar;;;low;;1;1;0;;;;{LEFTARROW};;-10000;;dromedar.wav;;;;;0;{RIGHTARROW};1653;;;;;2;;Dr;;;2
5;3;2;2;Blomma;;Dahlia;;;low;;1;1;1;;;;{RIGHTARROW};;10000;;dahlia.wav;;;;;1;{RIGHTARROW};1258;1258;;;;1;;Da;;;2
5;3;2;2;Fyrbent djur;;Hyena;;;low;;1;1;1;;;;{LEFTARROW};;-10000;;hyena.wav;;;;;1;{LEFTARROW};1198;1198;;;;2;;Hy;;;2
5;3;2;2;Blomma;;Krokus;;;low;;3;0;0;;;;{RIGHTARROW};;10000;;krokus.wav;;;;;1;{RIGHTARROW};1237;;;;;1;;Kr;;;2
5;3;2;2;Blomma;;Iris;;;low;;1;1;1;;;;{RIGHTARROW};;10000;;iris.wav;;;;;1;{RIGHTARROW};1690;1690;;;;1;;Ir;;;2
5;3;2;2;Blomma;;Hundkäx;;;low;;3;0;0;;;;{RIGHTARROW};;10000;;hundkäx.wav;;;;;1;{RIGHTARROW};1245;;;;;1;;Hu;;;2
5;3;2;2;Fyrbent djur;;Panter;;;low;;1;1;0;;;;{LEFTARROW};;-10000;;panter.wav;;;;;0;{RIGHTARROW};1921;;;;;2;;Pa;;;2
5;3;2;2;Fyrbent djur;;Hyena;;;low;;1;1;0;;;;{LEFTARROW};;-10000;;hyena.wav;;;;;0;{RIGHTARROW};1291;;;;;2;;Hy;;;3
5;3;2;2;Blomma;;Iris;;;low;;1;1;1;;;;{RIGHTARROW};;10000;;iris.wav;;;;;1;{RIGHTARROW};1230;1230;;;;1;;Ir;;;3
5;3;2;2;Blomma;;Krokus;;;low;;3;0;0;;;;{RIGHTARROW};;10000;;krokus.wav;;;;;0;{LEFTARROW};1586;;;;;1;;Kr;;;3
5;3;2;2;Blomma;;Hundkäx;;;low;;3;0;0;;;;{RIGHTARROW};;10000;;hundkäx.wav;;;;;0;{LEFTARROW};1319;;;;;1;;Hu;;;3
5;3;2;2;Fyrbent djur;;Panter;;;low;;1;1;0;;;;{LEFTARROW};;-10000;;panter.wav;;;;;0;{RIGHTARROW};1705;;;;;2;;Pa;;;3
5;3;2;2;Fyrbent djur;;Ekorre;;;low;;1;1;0;;;;{LEFTARROW};;-10000;;ekorre.wav;;;;;0;{RIGHTARROW};1772;;;;;2;;Ek;;;3
5;3;2;2;Fyrbent djur;;Dromedar;;;low;;1;1;1;;;;{LEFTARROW};;-10000;;dromedar.wav;;;;;1;{LEFTARROW};507;507;;;;2;;Dr;;;3
5;3;2;2;Blomma;;Dahlia;;;low;;1;1;1;;;;{RIGHTARROW};;10000;;dahlia.wav;;;;;1;{RIGHTARROW};2654;2654;;;;1;;Da;;;3
5;3;2;3;;;;;;;;;;;;;;;;;;;;;;;;;;;;;;;;;;;
5;3;2;4;;Fyrbent djur;;Hyena;RpPlus;;low;;;;1;1;0;;{LEFTARROW};;-10000;;hyena.wav;;;;;;;;0;{RIGHTARROW};525;;2;;Hy;H;
5;3;2;4;;Fyrbent djur;;Panter;RpPlus;;low;;;;1;1;1;;{LEFTARROW};;-10000;;panter.wav;;;;;;;;1;{LEFTARROW};1409;;2;;Pa;P;
5;3;2;4;;Dansstil;;Rumba;NrpLow;;low;;;;3;0;0;;{LEFTARROW};;-10000;;rumba.wav;;;;;;;;0;{RIGHTARROW};1556;;3;;Ru;R;
5;3;2;4;;Blomma;;Vitsippa;RpMinus;;high;;;;3;0;0;;{LEFTARROW};;-10000;;vitsippa.wav;;;;;;;;0;{RIGHTARROW};3264;;1;;Vi;V;
5;3;2;4;;Fyrbent djur;;Råtta;RpMinus;;high;;;;1;1;1;;{RIGHTARROW};;10000;;råtta.wav;;;;;;;;1;{RIGHTARROW};1688;;2;;Rå;R;
5;3;2;4;;Fyrbent djur;;Dromedar;RpPlus;;low;;;;1;1;0;;{LEFTARROW};;-10000;;dromedar.wav;;;;;;;;0;{RIGHTARROW};1216;;2;;Dr;D;
5;3;2;4;;Fyrbent djur;;Lejon;RpMinus;;high;;;;1;1;1;;{RIGHTARROW};;10000;;lejon.wav;;;;;;;;1;{RIGHTARROW};1562;;2;;Le;L;
5;3;2;4;;Blomma;;Hundkäx;RpPlus;;low;;;;3;0;0;;{RIGHTARROW};;10000;;hundkäx.wav;;;;;;;;1;{RIGHTARROW};1031;;1;;Hu;H;
5;3;2;4;;Dansstil;;Twist;NrpLow;;low;;;;3;0;0;;{LEFTARROW};;-10000;;twist.wav;;;;;;;;0;{RIGHTARROW};4504;;3;;Tw;T;
5;3;2;4;;Fyrbent djur;;Giraff;RpMinus;;high;;;;1;1;0;;{RIGHTARROW};;10000;;giraff.wav;;;;;;;;0;{LEFTARROW};2159;;2;;Gi;G;
5;3;2;4;;Blomma;;Blåklocka;RpMinus;;high;;;;3;0;0;;{LEFTARROW};;-10000;;blåklocka.wav;;;;;;;;0;{RIGHTARROW};1475;;1;;Bl;B;
5;3;2;4;;Fyrbent djur;;Ekorre;RpPlus;;low;;;;2;0;0;;{LEFTARROW};;-10000;;ekorre.wav;;;;;;;;0;{RIGHTARROW};1426;;2;;Ek;E;
5;3;2;4;;Dansstil;;Salsa;NrpHigh;;high;;;;3;0;0;;{RIGHTARROW};;10000;;salsa.wav;;;;;;;;1;{RIGHTARROW};1701;;3;;Sa;S;
5;3;2;4;;Dansstil;;Wienervals;NrpLow;;low;;;;3;0;0;;{LEFTARROW};;-10000;;wienervals.wav;;;;;;;;0;{RIGHTARROW};1723;;3;;Wi;W;
5;3;2;4;;Dansstil;;Lambada;NrpLow;;low;;;;3;0;0;;{LEFTARROW};;-10000;;lambada.wav;;;;;;;;1;{LEFTARROW};1986;;3;;La;L;
5;3;2;4;;Dansstil;;Balett;NrpHigh;;high;;;;3;0;0;;{RIGHTARROW};;10000;;balett.wav;;;;;;;;1;{RIGHTARROW};2749;;3;;Ba;B;
5;3;2;4;;Blomma;;Lilja;RpMinus;;high;;;;3;0;0;;{LEFTARROW};;-10000;;lilja.wav;;;;;;;;0;{RIGHTARROW};2731;;1;;Li;L;
5;3;2;4;;Blomma;;Krokus;RpPlus;;low;;;;3;0;0;;{RIGHTARROW};;10000;;krokus.wav;;;;;;;;1;{RIGHTARROW};2056;;1;;Kr;K;
5;3;2;4;;Blomma;;Iris;RpPlus;;low;;;;1;1;1;;{RIGHTARROW};;10000;;iris.wav;;;;;;;;1;{RIGHTARROW};1121;;1;;Ir;I;
5;3;2;4;;Fyrbent djur;;Tiger;RpMinus;;high;;;;1;1;1;;{RIGHTARROW};;10000;;tiger.wav;;;;;;;;1;{RIGHTARROW};1759;;2;;Ti;T;
5;3;2;4;;Blomma;;Dahlia;RpPlus;;low;;;;1;1;1;;{RIGHTARROW};;10000;;dahlia.wav;;;;;;;;1;{RIGHTARROW};1187;;1;;Da;D;
5;3;2;4;;Dansstil;;Polka;NrpHigh;;high;;;;1;1;1;;{RIGHTARROW};;10000;;polka.wav;;;;;;;;1;{RIGHTARROW};2926;;3;;Po;P;
5;3;2;4;;Dansstil;;Foxtrot;NrpHigh;;high;;;;1;1;1;;{RIGHTARROW};;10000;;foxtrot.wav;;;;;;;;1;{RIGHTARROW};1765;;3;;Fo;F;
5;3;2;4;;Blomma;;Tussilago;RpMinus;;high;;;;3;0;0;;{LEFTARROW};;-10000;;tussilago.wav;;;;;;;;1;{LEFTARROW};1641;;1;;Tu;T;
5;4;6;1;;Köksredskap;;Visp;RpMinus;;high;;;;;;;;{RIGHTARROW};;10000;;visp.wav;1;{RIGHTARROW};766;;;;;;;;;2;;Vi;V;
5;4;6;1;;Fisk;;Braxen;RpMinus;;high;;;;;;;;{LEFTARROW};;-10000;;braxen.wav;1;{LEFTARROW};583;;;;;;;;;1;;Br;B;
5;4;6;1;;Köksredskap;;Förskärare;RpPlus;;low;;;;;;;;{LEFTARROW};;-10000;;förskärare.wav;1;{LEFTARROW};704;;;;;;;;;2;;Fö;F;
5;4;6;1;;Väderfenomen;;Hagel;NrpHigh;;high;;;;;;;;{RIGHTARROW};;10000;;hagel.wav;1;{RIGHTARROW};612;;;;;;;;;3;;Ha;H;
5;4;6;1;;Fisk;;Rödspätta;RpPlus;;low;;;;;;;;{RIGHTARROW};;10000;;rödspätta.wav;1;{RIGHTARROW};609;;;;;;;;;1;;Rö;R;
5;4;6;1;;Väderfenomen;;Monsun;NrpLow;;low;;;;;;;;{LEFTARROW};;-10000;;monsun.wav;1;{LEFTARROW};617;;;;;;;;;3;;Mo;M;
5;4;6;1;;Köksredskap;;Osthyvel;RpPlus;;low;;;;;;;;{LEFTARROW};;-10000;;osthyvel.wav;1;{LEFTARROW};967;;;;;;;;;2;;Os;O;
5;4;6;1;;Fisk;;Piraya;RpPlus;;low;;;;;;;;{RIGHTARROW};;10000;;piraya.wav;1;{RIGHTARROW};612;;;;;;;;;1;;Pi;P;
5;4;6;1;;Fisk;;Makrill;RpMinus;;high;;;;;;;;{LEFTARROW};;-10000;;makrill.wav;1;{LEFTARROW};590;;;;;;;;;1;;Ma;M;
5;4;6;1;;Väderfenomen;;Tornado;NrpHigh;;high;;;;;;;;{RIGHTARROW};;10000;;tornado.wav;1;{RIGHTARROW};553;;;;;;;;;3;;To;T;
5;4;6;1;;Köksredskap;;Gryta;RpMinus;;high;;;;;;;;{RIGHTARROW};;10000;;gryta.wav;1;{RIGHTARROW};746;;;;;;;;;2;;Gr;G;
5;4;6;1;;Köksredskap;;Hålslev;RpPlus;;low;;;;;;;;{LEFTARROW};;-10000;;hålslev.wav;1;{LEFTARROW};1437;;;;;;;;;2;;Hå;H;
5;4;6;1;;Väderfenomen;;Ösregn;NrpLow;;low;;;;;;;;{LEFTARROW};;-10000;;ösregn.wav;1;{LEFTARROW};805;;;;;;;;;3;;Ös;Ö;
5;4;6;1;;Väderfenomen;;Snöstorm;NrpLow;;low;;;;;;;;{LEFTARROW};;-10000;;snöstorm.wav;1;{LEFTARROW};853;;;;;;;;;3;;Sn;S;
5;4;6;1;;Fisk;;Sill;RpMinus;;high;;;;;;;;{LEFTARROW};;-10000;;sill.wav;1;{LEFTARROW};715;;;;;;;;;1;;Si;S;
5;4;6;1;;Väderfenomen;;Kuling;NrpLow;;low;;;;;;;;{LEFTARROW};;-10000;;kuling.wav;1;{LEFTARROW};1216;;;;;;;;;3;;Ku;K;
5;4;6;1;;Fisk;;Flundra;RpPlus;;low;;;;;;;;{RIGHTARROW};;10000;;flundra.wav;1;{RIGHTARROW};735;;;;;;;;;1;;Fl;F;
5;4;6;1;;Väderfenomen;;Norrsken;NrpHigh;;high;;;;;;;;{RIGHTARROW};;10000;;norrsken.wav;1;{RIGHTARROW};811;;;;;;;;;3;;No;N;
5;4;6;1;;Fisk;;Tonfisk;RpMinus;;high;;;;;;;;{LEFTARROW};;-10000;;tonfisk.wav;1;{LEFTARROW};683;;;;;;;;;1;;To;T;
5;4;6;1;;Väderfenomen;;Dimma;NrpHigh;;high;;;;;;;;{RIGHTARROW};;10000;;dimma.wav;1;{RIGHTARROW};800;;;;;;;;;3;;Di;D;
5;4;6;1;;Fisk;;Hammarhaj;RpPlus;;low;;;;;;;;{RIGHTARROW};;10000;;hammarhaj.wav;1;{RIGHTARROW};721;;;;;;;;;1;;Ha;H;
5;4;6;1;;Köksredskap;;Mixer;RpMinus;;high;;;;;;;;{RIGHTARROW};;10000;;mixer.wav;1;{RIGHTARROW};569;;;;;;;;;2;;Mi;M;
5;4;6;1;;Köksredskap;;Kavel;RpPlus;;low;;;;;;;;{LEFTARROW};;-10000;;kavel.wav;1;{LEFTARROW};710;;;;;;;;;2;;Ka;K;
5;4;6;1;;Köksredskap;;Rivjärn;RpMinus;;high;;;;;;;;{RIGHTARROW};;10000;;rivjärn.wav;1;{RIGHTARROW};554;;;;;;;;;2;;Ri;R;
5;4;6;2;Fisk;;Hammarhaj;;;low;;1;1;1;;;;{RIGHTARROW};;10000;;hammarhaj.wav;;;;;1;{RIGHTARROW};1409;1409;;;;1;;Ha;;;1
5;4;6;2;Köksredskap;;Hålslev;;;low;;1;1;0;;;;{LEFTARROW};;-10000;;hålslev.wav;;;;;0;{RIGHTARROW};1421;;;;;2;;Hå;;;1
5;4;6;2;Köksredskap;;Osthyvel;;;low;;1;1;0;;;;{LEFTARROW};;-10000;;osthyvel.wav;;;;;0;{RIGHTARROW};1193;;;;;2;;Os;;;1
5;4;6;2;Fisk;;Rödspätta;;;low;;1;1;1;;;;{RIGHTARROW};;10000;;rödspätta.wav;;;;;1;{RIGHTARROW};1200;1200;;;;1;;Rö;;;1
5;4;6;2;Köksredskap;;Kavel;;;low;;3;0;0;;;;{LEFTARROW};;-10000;;kavel.wav;;;;;0;{RIGHTARROW};2038;;;;;2;;Ka;;;1
5;4;6;2;Köksredskap;;Förskärare;;;low;;1;1;0;;;;{LEFTARROW};;-10000;;förskärare.wav;;;;;0;{RIGHTARROW};1163;;;;;2;;Fö;;;1
5;4;6;2;Fisk;;Piraya;;;low;;3;0;0;;;;{RIGHTARROW};;10000;;piraya.wav;;;;;0;{LEFTARROW};1746;;;;;1;;Pi;;;1
5;4;6;2;Fisk;;Flundra;;;low;;1;1;1;;;;{RIGHTARROW};;10000;;flundra.wav;;;;;1;{RIGHTARROW};595;595;;;;1;;Fl;;;1
5;4;6;2;Köksredskap;;Hålslev;;;low;;1;1;0;;;;{LEFTARROW};;-10000;;hålslev.wav;;;;;0;{RIGHTARROW};1073;;;;;2;;Hå;;;2
5;4;6;2;Fisk;;Flundra;;;low;;1;1;0;;;;{RIGHTARROW};;10000;;flundra.wav;;;;;0;{LEFTARROW};1581;;;;;1;;Fl;;;2
5;4;6;2;Fisk;;Hammarhaj;;;low;;1;1;1;;;;{RIGHTARROW};;10000;;hammarhaj.wav;;;;;1;{RIGHTARROW};708;708;;;;1;;Ha;;;2
5;4;6;2;Köksredskap;;Kavel;;;low;;3;0;0;;;;{LEFTARROW};;-10000;;kavel.wav;;;;;0;{RIGHTARROW};1053;;;;;2;;Ka;;;2
5;4;6;2;Köksredskap;;Osthyvel;;;low;;1;1;1;;;;{LEFTARROW};;-10000;;osthyvel.wav;;;;;1;{LEFTARROW};2345;2345;;;;2;;Os;;;2
5;4;6;2;Fisk;;Rödspätta;;;low;;1;1;1;;;;{RIGHTARROW};;10000;;rödspätta.wav;;;;;1;{RIGHTARROW};705;705;;;;1;;Rö;;;2
5;4;6;2;Fisk;;Piraya;;;low;;3;0;0;;;;{RIGHTARROW};;10000;;piraya.wav;;;;;1;{RIGHTARROW};1435;;;;;1;;Pi;;;2
5;4;6;2;Köksredskap;;Förskärare;;;low;;1;1;0;;;;{LEFTARROW};;-10000;;förskärare.wav;;;;;0;{RIGHTARROW};841;;;;;2;;Fö;;;2
5;4;6;2;Fisk;;Piraya;;;low;;3;0;0;;;;{RIGHTARROW};;10000;;piraya.wav;;;;;1;{RIGHTARROW};1149;;;;;1;;Pi;;;3
5;4;6;2;Köksredskap;;Osthyvel;;;low;;1;1;0;;;;{LEFTARROW};;-10000;;osthyvel.wav;;;;;0;{RIGHTARROW};901;;;;;2;;Os;;;3
5;4;6;2;Köksredskap;;Hålslev;;;low;;1;1;0;;;;{LEFTARROW};;-10000;;hålslev.wav;;;;;0;{RIGHTARROW};728;;;;;2;;Hå;;;3
5;4;6;2;Fisk;;Hammarhaj;;;low;;1;1;1;;;;{RIGHTARROW};;10000;;hammarhaj.wav;;;;;1;{RIGHTARROW};1265;1265;;;;1;;Ha;;;3
5;4;6;2;Köksredskap;;Kavel;;;low;;3;0;0;;;;{LEFTARROW};;-10000;;kavel.wav;;;;;0;{RIGHTARROW};1011;;;;;2;;Ka;;;3
5;4;6;2;Fisk;;Flundra;;;low;;1;1;1;;;;{RIGHTARROW};;10000;;flundra.wav;;;;;1;{RIGHTARROW};767;767;;;;1;;Fl;;;3
5;4;6;2;Fisk;;Rödspätta;;;low;;1;1;1;;;;{RIGHTARROW};;10000;;rödspätta.wav;;;;;1;{RIGHTARROW};646;646;;;;1;;Rö;;;3
5;4;6;2;Köksredskap;;Förskärare;;;low;;1;1;1;;;;{LEFTARROW};;-10000;;förskärare.wav;;;;;1;{LEFTARROW};1873;1873;;;;2;;Fö;;;3
5;4;6;3;;;;;;;;;;;;;;;;;;;;;;;;;;;;;;;;;;;
5;4;6;4;;Köksredskap;;Hålslev;RpPlus;;low;;;;1;1;0;;{LEFTARROW};;-10000;;hålslev.wav;;;;;;;;0;{RIGHTARROW};1515;;2;;Hå;H;
5;4;6;4;;Väderfenomen;;Snöstorm;NrpLow;;low;;;;3;0;0;;{LEFTARROW};;-10000;;snöstorm.wav;;;;;;;;0;{RIGHTARROW};1177;;3;;Sn;S;
5;4;6;4;;Köksredskap;;Osthyvel;RpPlus;;low;;;;1;1;0;;{LEFTARROW};;-10000;;osthyvel.wav;;;;;;;;0;{RIGHTARROW};1332;;2;;Os;O;
5;4;6;4;;Väderfenomen;;Norrsken;NrpHigh;;high;;;;3;0;0;;{RIGHTARROW};;10000;;norrsken.wav;;;;;;;;0;{LEFTARROW};953;;3;;No;N;
5;4;6;4;;Väderfenomen;;Hagel;NrpHigh;;high;;;;1;1;1;;{RIGHTARROW};;10000;;hagel.wav;;;;;;;;1;{RIGHTARROW};797;;3;;Ha;H;
5;4;6;4;;Väderfenomen;;Kuling;NrpLow;;low;;;;3;0;0;;{LEFTARROW};;-10000;;kuling.wav;;;;;;;;0;{RIGHTARROW};936;;3;;Ku;K;
5;4;6;4;;Fisk;;Tonfisk;RpMinus;;high;;;;1;1;0;;{LEFTARROW};;-10000;;tonfisk.wav;;;;;;;;0;{RIGHTARROW};1038;;1;;To;T;
5;4;6;4;;Köksredskap;;Kavel;RpPlus;;low;;;;3;0;0;;{LEFTARROW};;-10000;;kavel.wav;;;;;;;;0;{RIGHTARROW};2128;;2;;Ka;K;
5;4;6;4;;Väderfenomen;;Dimma;NrpHigh;;high;;;;3;0;0;;{RIGHTARROW};;10000;;dimma.wav;;;;;;;;1;{RIGHTARROW};1878;;3;;Di;D;
5;4;6;4;;Köksredskap;;Gryta;RpMinus;;high;;;;1;1;0;;{RIGHTARROW};;10000;;gryta.wav;;;;;;;;0;{LEFTARROW};1397;;2;;Gr;G;
5;4;6;4;;Köksredskap;;Mixer;RpMinus;;high;;;;1;1;1;;{RIGHTARROW};;10000;;mixer.wav;;;;;;;;1;{RIGHTARROW};1016;;2;;Mi;M;
